account_id,account_name,industry,country,signup_date,referral_source,plan_tier,seats,is_trial,churn_flag,churn_flag_num,is_trial_num,subscription_count,trial_subscription_count,churn_subscription_count,total_seats,avg_subscription_seats,total_mrr,total_arr,avg_mrr,avg_arr,trial_rate,churn_rate,auto_renew_rate,usage_event_count,total_usage_count,total_usage_duration_secs,total_error_count,unique_features_used,beta_feature_usage_rate,avg_usage_count,avg_usage_duration_secs,avg_error_count,ticket_count,escalated_ticket_count,avg_resolution_time_hours,avg_first_response_time_minutes,avg_satisfaction_score,churn_event_count,total_refund_amount_usd,reactivation_related_churn_count,preceding_upgrade_churn_count,preceding_downgrade_churn_count,usage_breadth_segment,usage_intensity_segment,support_burden_segment,revenue_segment,target_churn,usage_count_per_subscription,usage_events_per_subscription,usage_duration_per_subscription,usage_duration_per_event,features_used_per_subscription,error_rate_per_usage,error_count_per_subscription,tickets_per_subscription,escalation_rate,resolution_hours_per_ticket,response_minutes_per_ticket,has_support_tickets,has_escalation,mrr_per_subscription,arr_per_subscription,mrr_per_seat,arr_per_seat,subscriptions_per_seat,has_trial_subscription,has_auto_renew_majority,has_churn_history,has_refund_history,refund_per_churn_event,upgrade_before_churn_rate,downgrade_before_churn_rate,reactivation_related_churn_rate,engagement_minus_friction,support_pressure_score,commercial_value_score
A-2e4581,Company_0,EdTech,US,2024-10-16,partner,Basic,9,0,0,0.0,0.0,10,2.0,0.0,312,31.2,12603,151236,1260.3,15123.6,0.2,0.0,0.8,55,535,152339,38,27,0.07272727272727272,9.727272727272727,2769.8,0.6909090909090909,2.0,0.0,23.0,91.0,3.0,2.0,0.0,0.0,1.0,0.0,Medium Breadth,Medium Intensity,Low Support,Low Revenue,0,53.5,5.5,15233.9,2769.8,2.7,0.07102803738317758,3.8,0.2,0.0,23.0,91.0,1,0,1260.3,15123.6,40.39423076923077,484.7307692307692,0.03205128205128205,1,1,1,0,0.0,0.5,0.0,0.0,52.400000000000006,2.0,25206.0
A-43a9e3,Company_1,FinTech,IN,2023-08-17,other,Basic,18,0,1,1.0,0.0,8,0.0,0.0,176,22.0,10004,120048,1250.5,15006.0,0.0,0.0,0.75,35,355,101136,14,23,0.05714285714285714,10.142857142857142,2889.6,0.4,3.0,0.0,38.0,73.33333333333333,4.0,0.0,0.0,0.0,0.0,0.0,Low Breadth,Low Intensity,Low Support,Low Revenue,1,44.375,4.375,12642.0,2889.6,2.875,0.03943661971830986,1.75,0.375,0.0,38.0,73.33333333333333,1,0,1250.5,15006.0,56.84090909090909,682.0909090909091,0.045454545454545456,0,1,0,0,,,,,45.5,3.0,20008.0
A-0a282f,Company_2,DevTools,US,2024-08-27,organic,Basic,1,0,0,0.0,0.0,15,1.0,3.0,282,18.8,18286,219432,1219.0666666666666,14628.8,0.06666666666666667,0.2,1.0,83,821,251210,48,34,0.060240963855421686,9.891566265060241,3026.626506024096,0.5783132530120482,3.0,0.0,43.666666666666664,63.666666666666664,4.666666666666667,2.0,62.66,0.0,0.0,1.0,High Breadth,High Intensity,Low Support,Medium Revenue,0,54.733333333333334,5.533333333333333,16747.333333333332,3026.626506024096,2.2666666666666666,0.058465286236297195,3.2,0.2,0.0,43.666666666666664,63.666666666666664,1,0,1219.0666666666666,14628.8,64.84397163120568,778.1276595744681,0.05319148936170213,1,1,1,1,31.33,0.0,0.5,0.0,53.8,3.0,36572.0
A-1f0ac7,Company_3,HealthTech,UK,2023-08-27,other,Basic,24,1,0,0.0,1.0,7,1.0,0.0,209,29.857142857142858,9275,111300,1325.0,15900.0,0.14285714285714285,0.0,0.7142857142857143,41,382,102528,21,26,0.12195121951219512,9.317073170731707,2500.682926829268,0.5121951219512195,2.0,0.0,29.0,174.0,0.0,1.0,0.0,0.0,1.0,0.0,Low Breadth,Low Intensity,Low Support,Low Revenue,0,54.57142857142857,5.857142857142857,14646.857142857143,2500.682926829268,3.7142857142857144,0.0549738219895288,3.0,0.2857142857142857,0.0,29.0,174.0,1,0,1325.0,15900.0,44.377990430622006,532.5358851674641,0.03349282296650718,1,1,1,0,0.0,1.0,0.0,0.0,55.285714285714285,2.0,18550.0
A-ce550d,Company_4,HealthTech,US,2024-10-27,event,Enterprise,35,0,1,1.0,0.0,9,1.0,2.0,424,47.111111111111114,48761,585132,5417.888888888889,65014.666666666664,0.1111111111111111,0.2222222222222222,0.6666666666666666,58,579,215779,31,32,0.06896551724137931,9.982758620689655,3720.3275862068967,0.5344827586206896,7.0,1.0,42.285714285714285,107.85714285714286,3.8,1.0,0.0,0.0,1.0,0.0,High Breadth,Medium Intensity,High Support,High Revenue,1,64.33333333333333,6.444444444444445,23975.444444444445,3720.3275862068967,3.5555555555555554,0.0535405872193437,3.4444444444444446,0.7777777777777778,0.14285714285714285,42.285714285714285,107.85714285714286,1,1,5417.888888888889,65014.666666666664,115.00235849056604,1380.0283018867924,0.02122641509433962,1,1,1,0,0.0,1.0,0.0,0.0,64.44444444444444,8.0,97522.0
A-1b9609,Company_5,EdTech,IN,2023-10-12,ads,Enterprise,4,0,0,0.0,0.0,11,1.0,1.0,215,19.545454545454547,16810,201720,1528.1818181818182,18338.18181818182,0.09090909090909091,0.09090909090909091,0.8181818181818182,47,457,140541,21,28,0.1276595744680851,9.72340425531915,2990.2340425531916,0.44680851063829785,4.0,0.0,43.0,74.75,3.0,3.0,0.0,0.0,1.0,0.0,Medium Breadth,Medium Intensity,Medium Support,Medium Revenue,0,41.54545454545455,4.2727272727272725,12776.454545454546,2990.2340425531916,2.5454545454545454,0.045951859956236324,1.9090909090909092,0.36363636363636365,0.0,43.0,74.75,1,0,1528.1818181818182,18338.18181818182,78.18604651162791,938.2325581395348,0.05116279069767442,1,1,1,0,0.0,0.3333333333333333,0.0,0.0,42.18181818181819,4.0,33620.0
A-a0ca4e,Company_6,Cybersecurity,US,2024-03-08,ads,Pro,11,0,0,0.0,0.0,9,1.0,0.0,176,19.555555555555557,16633,199596,1848.111111111111,22177.333333333332,0.1111111111111111,0.0,0.8888888888888888,39,373,116964,14,26,0.07692307692307693,9.564102564102564,2999.076923076923,0.358974358974359,6.0,3.0,39.166666666666664,89.83333333333333,3.8,0.0,0.0,0.0,0.0,0.0,Low Breadth,Low Intensity,High Support,Medium Revenue,0,41.44444444444444,4.333333333333333,12996.0,2999.076923076923,2.888888888888889,0.03753351206434316,1.5555555555555556,0.6666666666666666,0.5,39.166666666666664,89.83333333333333,1,1,1848.111111111111,22177.333333333332,94.50568181818181,1134.0681818181818,0.05113636363636364,1,1,0,0,,,,,42.77777777777777,9.0,33266.0
A-e5d6ab,Company_7,EdTech,US,2023-04-15,partner,Pro,3,0,0,0.0,0.0,10,1.0,1.0,189,18.9,13048,156576,1304.8,15657.6,0.1,0.1,0.9,41,382,111506,23,29,0.12195121951219512,9.317073170731707,2719.6585365853657,0.5609756097560976,3.0,0.0,42.666666666666664,57.0,0.0,2.0,0.0,0.0,1.0,0.0,Medium Breadth,Low Intensity,Low Support,Low Revenue,0,38.2,4.1,11150.6,2719.6585365853657,2.9,0.060209424083769635,2.3,0.3,0.0,42.666666666666664,57.0,1,0,1304.8,15657.6,69.03703703703704,828.4444444444445,0.05291005291005291,1,1,1,0,0.0,0.5,0.0,0.0,38.800000000000004,3.0,26096.0
A-7dacce,Company_8,Cybersecurity,CA,2024-09-10,event,Enterprise,12,0,1,1.0,0.0,10,3.0,0.0,216,21.6,23057,276684,2305.7,27668.4,0.3,0.0,0.7,48,472,145429,29,27,0.10416666666666667,9.833333333333334,3029.7708333333335,0.6041666666666666,4.0,0.0,32.5,75.25,3.6666666666666665,3.0,0.0,0.0,1.0,0.0,Medium Breadth,Medium Intensity,Medium Support,Medium Revenue,1,47.2,4.8,14542.9,3029.7708333333335,2.7,0.0614406779661017,2.9,0.4,0.0,32.5,75.25,1,0,2305.7,27668.4,106.74537037037037,1280.9444444444443,0.046296296296296294,1,1,1,0,0.0,0.3333333333333333,0.0,0.0,47.00000000000001,4.0,46114.0
A-10b8da,Company_9,DevTools,US,2023-05-08,partner,Enterprise,14,0,1,1.0,0.0,6,1.0,1.0,116,19.333333333333332,8787,105444,1464.5,17574.0,0.16666666666666666,0.16666666666666666,0.6666666666666666,27,257,73818,14,23,0.07407407407407407,9.518518518518519,2734.0,0.5185185185185185,3.0,0.0,31.333333333333332,71.33333333333333,3.5,0.0,0.0,0.0,0.0,0.0,Low Breadth,Low Intensity,Low Support,Low Revenue,1,42.833333333333336,4.5,12303.0,2734.0,3.8333333333333335,0.054474708171206226,2.3333333333333335,0.5,0.0,31.333333333333332,71.33333333333333,1,0,1464.5,17574.0,75.75,909.0,0.05172413793103448,1,1,0,0,,,,,44.333333333333336,3.0,17574.0
A-592832,Company_10,Cybersecurity,US,2024-09-25,organic,Basic,18,0,1,1.0,0.0,19,3.0,3.0,525,27.63157894736842,32571,390852,1714.2631578947369,20571.157894736843,0.15789473684210525,0.15789473684210525,0.7894736842105263,101,1053,326283,55,38,0.12871287128712872,10.425742574257425,3230.5247524752476,0.5445544554455446,3.0,0.0,32.666666666666664,80.66666666666667,5.0,1.0,22.66,0.0,0.0,0.0,High Breadth,High Intensity,Low Support,High Revenue,1,55.421052631578945,5.315789473684211,17172.78947368421,3230.5247524752476,2.0,0.052231718898385564,2.8947368421052633,0.15789473684210525,0.0,32.666666666666664,80.66666666666667,1,0,1714.2631578947369,20571.157894736843,62.04,744.48,0.03619047619047619,1,1,1,1,22.66,0.0,0.0,0.0,54.526315789473685,3.0,65142.0
A-d40bf7,Company_11,FinTech,IN,2024-11-08,organic,Basic,59,0,0,0.0,0.0,10,3.0,0.0,590,59.0,43247,518964,4324.7,51896.4,0.3,0.0,0.6,55,562,150186,22,29,0.09090909090909091,10.218181818181819,2730.6545454545453,0.4,2.0,0.0,20.5,125.5,5.0,0.0,0.0,0.0,0.0,0.0,Medium Breadth,Medium Intensity,Low Support,High Revenue,0,56.2,5.5,15018.6,2730.6545454545453,2.9,0.03914590747330961,2.2,0.2,0.0,20.5,125.5,1,0,4324.7,51896.4,73.3,879.6,0.01694915254237288,1,1,0,0,,,,,56.9,2.0,86494.0
A-6c093d,Company_12,DevTools,US,2023-04-14,partner,Basic,7,1,0,0.0,1.0,12,2.0,3.0,237,19.75,16242,194904,1353.5,16242.0,0.16666666666666666,0.25,0.8333333333333334,64,670,217275,30,30,0.15625,10.46875,3394.921875,0.46875,3.0,1.0,40.333333333333336,68.33333333333333,5.0,0.0,0.0,0.0,0.0,0.0,Medium Breadth,High Intensity,Low Support,Medium Revenue,0,55.833333333333336,5.333333333333333,18106.25,3394.921875,2.5,0.04477611940298507,2.5,0.25,0.3333333333333333,40.333333333333336,68.33333333333333,1,1,1353.5,16242.0,68.53164556962025,822.379746835443,0.05063291139240506,1,1,0,0,,,,,55.833333333333336,4.0,32484.0
A-462d45,Company_13,Cybersecurity,US,2024-01-15,partner,Enterprise,11,1,0,0.0,1.0,12,2.0,2.0,447,37.25,23432,281184,1952.6666666666667,23432.0,0.16666666666666666,0.16666666666666666,0.8333333333333334,69,642,159561,26,34,0.11594202898550725,9.304347826086957,2312.478260869565,0.37681159420289856,4.0,0.0,26.75,95.0,4.0,1.0,0.0,0.0,0.0,0.0,High Breadth,High Intensity,Medium Support,Medium Revenue,0,53.5,5.75,13296.75,2312.478260869565,2.8333333333333335,0.040498442367601244,2.1666666666666665,0.3333333333333333,0.0,26.75,95.0,1,0,1952.6666666666667,23432.0,52.42058165548099,629.0469798657718,0.026845637583892617,1,1,1,0,0.0,0.0,0.0,0.0,54.16666666666667,4.0,46864.0
A-956988,Company_14,EdTech,UK,2024-11-30,ads,Enterprise,1,0,0,0.0,0.0,13,2.0,1.0,387,29.76923076923077,29407,352884,2262.076923076923,27144.923076923078,0.15384615384615385,0.07692307692307693,0.7692307692307693,70,658,173232,49,32,0.11428571428571428,9.4,2474.7428571428572,0.7,2.0,0.0,50.5,118.0,3.0,2.0,0.0,1.0,1.0,1.0,High Breadth,High Intensity,Low Support,High Revenue,0,50.61538461538461,5.384615384615385,13325.538461538461,2474.7428571428572,2.4615384615384617,0.07446808510638298,3.769230769230769,0.15384615384615385,0.0,50.5,118.0,1,0,2262.076923076923,27144.923076923078,75.98708010335918,911.8449612403101,0.03359173126614987,1,1,1,0,0.0,0.5,0.5,0.5,49.30769230769231,2.0,58814.0
A-ac14bb,Company_15,FinTech,US,2023-09-08,partner,Enterprise,21,0,0,0.0,0.0,8,1.0,2.0,250,31.25,27746,332952,3468.25,41619.0,0.125,0.25,0.875,54,531,170826,42,31,0.12962962962962962,9.833333333333334,3163.4444444444443,0.7777777777777778,2.0,0.0,24.5,30.5,4.0,2.0,128.79,0.0,0.0,0.0,Medium Breadth,Medium Intensity,Low Support,High Revenue,0,66.375,6.75,21353.25,3163.4444444444443,3.875,0.07909604519774012,5.25,0.25,0.0,24.5,30.5,1,0,3468.25,41619.0,110.984,1331.808,0.032,1,1,1,1,64.395,0.0,0.0,0.0,65.0,2.0,55492.0
A-463db0,Company_16,HealthTech,US,2024-12-05,partner,Basic,15,0,0,0.0,0.0,7,0.0,0.0,174,24.857142857142858,13266,159192,1895.142857142857,22741.714285714286,0.0,0.0,0.7142857142857143,37,367,106259,13,25,0.08108108108108109,9.91891891891892,2871.864864864865,0.35135135135135137,6.0,1.0,50.166666666666664,94.83333333333333,4.25,1.0,0.0,1.0,0.0,0.0,Low Breadth,Low Intensity,High Support,Low Revenue,0,52.42857142857143,5.285714285714286,15179.857142857143,2871.864864864865,3.5714285714285716,0.035422343324250684,1.8571428571428572,0.8571428571428571,0.16666666666666666,50.166666666666664,94.83333333333333,1,1,1895.142857142857,22741.714285714286,76.24137931034483,914.8965517241379,0.040229885057471264,0,1,1,0,0.0,0.0,0.0,1.0,54.142857142857146,7.0,26532.0
A-ce66f8,Company_17,EdTech,CA,2023-08-23,event,Pro,29,0,0,0.0,0.0,6,0.0,0.0,182,30.333333333333332,11858,142296,1976.3333333333333,23716.0,0.0,0.0,1.0,46,494,133559,19,29,0.13043478260869565,10.73913043478261,2903.4565217391305,0.41304347826086957,6.0,0.0,41.666666666666664,79.16666666666667,3.5,0.0,0.0,0.0,0.0,0.0,Medium Breadth,Medium Intensity,High Support,Low Revenue,0,82.33333333333333,7.666666666666667,22259.833333333332,2903.4565217391305,4.833333333333333,0.038461538461538464,3.1666666666666665,1.0,0.0,41.666666666666664,79.16666666666667,1,0,1976.3333333333333,23716.0,65.15384615384616,781.8461538461538,0.03296703296703297,0,1,0,0,,,,,83.99999999999999,6.0,23716.0
A-c4ea60,Company_18,FinTech,DE,2023-03-09,other,Enterprise,18,0,1,1.0,0.0,9,1.0,0.0,232,25.77777777777778,14646,175752,1627.3333333333333,19528.0,0.1111111111111111,0.0,0.7777777777777778,43,427,137244,18,28,0.20930232558139536,9.930232558139535,3191.720930232558,0.4186046511627907,5.0,0.0,36.0,59.0,3.6,0.0,0.0,0.0,0.0,0.0,Medium Breadth,Medium Intensity,Medium Support,Medium Revenue,1,47.44444444444444,4.777777777777778,15249.333333333334,3191.720930232558,3.111111111111111,0.04215456674473068,2.0,0.5555555555555556,0.0,36.0,59.0,1,0,1627.3333333333333,19528.0,63.12931034482759,757.551724137931,0.03879310344827586,1,1,0,0,,,,,48.55555555555556,5.0,29292.0
A-832ec2,Company_19,FinTech,UK,2023-11-19,event,Enterprise,4,1,0,0.0,1.0,8,2.0,0.0,132,16.5,9299,111588,1162.375,13948.5,0.25,0.0,0.375,49,511,157711,25,31,0.12244897959183673,10.428571428571429,3218.591836734694,0.5102040816326531,3.0,1.0,26.0,108.66666666666667,4.0,2.0,0.0,0.0,1.0,0.0,Medium Breadth,Medium Intensity,Low Support,Low Revenue,0,63.875,6.125,19713.875,3218.591836734694,3.875,0.04892367906066536,3.125,0.375,0.3333333333333333,26.0,108.66666666666667,1,1,1162.375,13948.5,70.4469696969697,845.3636363636364,0.06060606060606061,1,0,1,0,0.0,0.5,0.0,0.0,64.625,4.0,18598.0
A-684255,Company_20,FinTech,US,2024-04-14,ads,Enterprise,9,0,0,0.0,0.0,14,2.0,3.0,209,14.928571428571429,11844,142128,846.0,10152.0,0.14285714285714285,0.21428571428571427,0.6428571428571429,66,653,191849,44,34,0.22727272727272727,9.893939393939394,2906.8030303030305,0.6666666666666666,4.0,1.0,14.25,97.75,4.666666666666667,2.0,0.0,1.0,0.0,0.0,High Breadth,High Intensity,Medium Support,Low Revenue,0,46.642857142857146,4.714285714285714,13703.5,2906.8030303030305,2.4285714285714284,0.06738131699846861,3.142857142857143,0.2857142857142857,0.25,14.25,97.75,1,1,846.0,10152.0,56.66985645933014,680.0382775119617,0.06698564593301436,1,1,1,0,0.0,0.0,0.0,0.5,45.92857142857143,5.0,23688.0
A-c42f1f,Company_21,HealthTech,US,2024-07-28,other,Pro,8,0,0,0.0,0.0,8,0.0,1.0,105,13.125,5175,62100,646.875,7762.5,0.0,0.125,0.75,35,337,98383,20,24,0.14285714285714285,9.628571428571428,2810.942857142857,0.5714285714285714,9.0,1.0,31.333333333333332,81.88888888888889,4.0,0.0,0.0,0.0,0.0,0.0,Low Breadth,Low Intensity,High Support,Low Revenue,0,42.125,4.375,12297.875,2810.942857142857,3.0,0.05934718100890208,2.5,1.125,0.1111111111111111,31.333333333333332,81.88888888888889,1,1,646.875,7762.5,49.285714285714285,591.4285714285714,0.0761904761904762,0,1,0,0,,,,,42.625,10.0,10350.0
A-4e44e8,Company_22,DevTools,US,2024-08-20,ads,Enterprise,3,0,1,1.0,0.0,14,3.0,2.0,348,24.857142857142858,36445,437340,2603.214285714286,31238.571428571428,0.21428571428571427,0.14285714285714285,0.7857142857142857,69,687,208387,37,32,0.11594202898550725,9.956521739130435,3020.1014492753625,0.5362318840579711,3.0,0.0,31.333333333333332,76.66666666666667,3.3333333333333335,2.0,35.48,1.0,1.0,0.0,High Breadth,High Intensity,Low Support,High Revenue,1,49.07142857142857,4.928571428571429,14884.785714285714,3020.1014492753625,2.2857142857142856,0.053857350800582245,2.642857142857143,0.21428571428571427,0.0,31.333333333333332,76.66666666666667,1,0,2603.214285714286,31238.571428571428,104.72701149425288,1256.7241379310344,0.040229885057471264,1,1,1,1,17.74,0.5,0.0,0.5,48.71428571428571,3.0,72890.0
A-30b4ca,Company_23,EdTech,IN,2024-05-20,organic,Basic,86,0,1,1.0,0.0,8,1.0,0.0,688,86.0,75938,911256,9492.25,113907.0,0.125,0.0,0.875,42,402,127433,22,28,0.23809523809523808,9.571428571428571,3034.1190476190477,0.5238095238095238,3.0,0.0,57.666666666666664,108.33333333333333,4.0,1.0,0.0,0.0,0.0,0.0,Medium Breadth,Low Intensity,Low Support,High Revenue,1,50.25,5.25,15929.125,3034.1190476190477,3.5,0.05472636815920398,2.75,0.375,0.0,57.666666666666664,108.33333333333333,1,0,9492.25,113907.0,110.375,1324.5,0.011627906976744186,1,1,1,0,0.0,0.0,0.0,0.0,51.0,3.0,151876.0
A-9f2731,Company_24,FinTech,IN,2024-10-04,event,Enterprise,1,0,0,0.0,0.0,7,3.0,0.0,168,24.0,3613,43356,516.1428571428571,6193.714285714285,0.42857142857142855,0.0,1.0,32,324,98113,20,23,0.0625,10.125,3066.03125,0.625,0.0,0.0,0.0,0.0,0.0,2.0,136.94,0.0,0.0,0.0,Low Breadth,Low Intensity,Low Support,Low Revenue,0,46.285714285714285,4.571428571428571,14016.142857142857,3066.03125,3.2857142857142856,0.06172839506172839,2.857142857142857,0.0,,,,0,0,516.1428571428571,6193.714285714285,21.50595238095238,258.07142857142856,0.041666666666666664,1,1,1,1,68.47,0.0,0.0,0.0,46.714285714285715,0.0,7226.0
A-32fb14,Company_25,DevTools,US,2023-03-07,event,Enterprise,26,0,1,1.0,0.0,9,1.0,2.0,264,29.333333333333332,10162,121944,1129.111111111111,13549.333333333334,0.1111111111111111,0.2222222222222222,0.7777777777777778,47,488,150708,19,27,0.0425531914893617,10.382978723404255,3206.553191489362,0.40425531914893614,5.0,0.0,34.0,59.6,4.5,3.0,0.0,0.0,0.0,0.0,Medium Breadth,Medium Intensity,Medium Support,Low Revenue,1,54.22222222222222,5.222222222222222,16745.333333333332,3206.553191489362,3.0,0.0389344262295082,2.111111111111111,0.5555555555555556,0.0,34.0,59.6,1,0,1129.111111111111,13549.333333333334,38.49242424242424,461.90909090909093,0.03409090909090909,1,1,1,0,0.0,0.0,0.0,0.0,55.11111111111111,5.0,20324.0
A-00cac8,Company_26,HealthTech,AU,2023-09-15,organic,Enterprise,8,1,0,0.0,1.0,9,1.0,0.0,138,15.333333333333334,14121,169452,1569.0,18828.0,0.1111111111111111,0.0,0.8888888888888888,58,602,171366,31,30,0.1206896551724138,10.379310344827585,2954.5862068965516,0.5344827586206896,2.0,0.0,33.0,120.5,0.0,0.0,0.0,0.0,0.0,0.0,Medium Breadth,High Intensity,Low Support,Medium Revenue,0,66.88888888888889,6.444444444444445,19040.666666666668,2954.5862068965516,3.3333333333333335,0.05149501661129568,3.4444444444444446,0.2222222222222222,0.0,33.0,120.5,1,0,1569.0,18828.0,102.32608695652173,1227.9130434782608,0.06521739130434782,1,1,0,0,,,,,66.77777777777777,2.0,28242.0
A-35083d,Company_27,HealthTech,IN,2023-04-28,partner,Basic,19,0,1,1.0,0.0,16,3.0,1.0,413,25.8125,32433,389196,2027.0625,24324.75,0.1875,0.0625,0.875,72,791,237055,37,29,0.09722222222222222,10.98611111111111,3292.4305555555557,0.5138888888888888,4.0,0.0,49.75,119.0,5.0,0.0,0.0,0.0,0.0,0.0,Medium Breadth,High Intensity,Medium Support,High Revenue,1,49.4375,4.5,14815.9375,3292.4305555555557,1.8125,0.04677623261694058,2.3125,0.25,0.0,49.75,119.0,1,0,2027.0625,24324.75,78.53026634382567,942.363196125908,0.0387409200968523,1,1,0,0,,,,,48.9375,4.0,64866.0
A-eb7fac,Company_28,DevTools,US,2023-10-28,organic,Enterprise,7,0,0,0.0,0.0,10,0.0,1.0,324,32.4,42096,505152,4209.6,50515.2,0.0,0.1,0.9,53,538,185729,44,27,0.11320754716981132,10.150943396226415,3504.3207547169814,0.8301886792452831,4.0,0.0,34.0,126.5,4.0,1.0,0.0,0.0,0.0,0.0,Medium Breadth,Medium Intensity,Medium Support,High Revenue,0,53.8,5.3,18572.9,3504.3207547169814,2.7,0.08178438661710037,4.4,0.4,0.0,34.0,126.5,1,0,4209.6,50515.2,129.92592592592592,1559.111111111111,0.030864197530864196,0,1,1,0,0.0,0.0,0.0,0.0,52.1,4.0,84192.0
A-b20d99,Company_29,HealthTech,IN,2023-09-27,other,Basic,20,0,0,0.0,0.0,7,0.0,0.0,161,23.0,11069,132828,1581.2857142857142,18975.428571428572,0.0,0.0,0.8571428571428571,33,329,105214,12,22,0.15151515151515152,9.969696969696969,3188.3030303030305,0.36363636363636365,2.0,0.0,61.5,27.0,3.5,1.0,0.0,0.0,0.0,0.0,Low Breadth,Low Intensity,Low Support,Low Revenue,0,47.0,4.714285714285714,15030.57142857143,3188.3030303030305,3.142857142857143,0.0364741641337386,1.7142857142857142,0.2857142857142857,0.0,61.5,27.0,1,0,1581.2857142857142,18975.428571428572,68.75155279503106,825.0186335403727,0.043478260869565216,0,1,1,0,0.0,0.0,0.0,0.0,48.42857142857143,2.0,22138.0
A-396e5f,Company_30,Cybersecurity,CA,2024-10-02,other,Enterprise,2,0,0,0.0,0.0,10,1.0,0.0,176,17.6,10236,122832,1023.6,12283.2,0.1,0.0,0.8,55,540,175427,23,29,0.09090909090909091,9.818181818181818,3189.581818181818,0.41818181818181815,5.0,1.0,24.8,102.8,4.0,1.0,0.0,0.0,0.0,0.0,Medium Breadth,Medium Intensity,Medium Support,Low Revenue,0,54.0,5.5,17542.7,3189.581818181818,2.9,0.04259259259259259,2.3,0.5,0.2,24.8,102.8,1,1,1023.6,12283.2,58.15909090909091,697.9090909090909,0.056818181818181816,1,1,1,0,0.0,0.0,0.0,0.0,54.6,6.0,20472.0
A-45ce7a,Company_31,FinTech,US,2023-07-23,ads,Enterprise,16,0,0,0.0,0.0,7,1.0,1.0,120,17.142857142857142,8216,98592,1173.7142857142858,14084.57142857143,0.14285714285714285,0.14285714285714285,0.7142857142857143,39,424,124978,30,21,0.05128205128205128,10.871794871794872,3204.5641025641025,0.7692307692307693,5.0,0.0,45.4,91.8,3.6666666666666665,0.0,0.0,0.0,0.0,0.0,Low Breadth,Medium Intensity,Medium Support,Low Revenue,0,60.57142857142857,5.571428571428571,17854.0,3204.5641025641025,3.0,0.07075471698113207,4.285714285714286,0.7142857142857143,0.0,45.4,91.8,1,0,1173.7142857142858,14084.57142857143,68.46666666666667,821.6,0.058333333333333334,1,1,0,0,,,,,59.285714285714285,5.0,16432.0
A-08e34e,Company_32,EdTech,US,2024-06-27,event,Basic,14,0,1,1.0,0.0,11,2.0,0.0,342,31.09090909090909,21821,261852,1983.7272727272727,23804.727272727272,0.18181818181818182,0.0,0.6363636363636364,63,651,186929,32,34,0.1111111111111111,10.333333333333334,2967.126984126984,0.5079365079365079,3.0,0.0,43.0,84.0,3.0,2.0,228.75,0.0,0.0,0.0,High Breadth,High Intensity,Low Support,Medium Revenue,1,59.18181818181818,5.7272727272727275,16993.545454545456,2967.126984126984,3.090909090909091,0.04915514592933948,2.909090909090909,0.2727272727272727,0.0,43.0,84.0,1,0,1983.7272727272727,23804.727272727272,63.80409356725146,765.6491228070175,0.03216374269005848,1,1,1,1,114.375,0.0,0.0,0.0,59.36363636363637,3.0,43642.0
A-8145a0,Company_33,Cybersecurity,AU,2023-04-25,partner,Basic,2,1,0,0.0,1.0,12,1.0,1.0,197,16.416666666666668,17260,207120,1438.3333333333333,17260.0,0.08333333333333333,0.08333333333333333,0.9166666666666666,64,693,200177,27,32,0.078125,10.828125,3127.765625,0.421875,6.0,0.0,23.666666666666668,90.16666666666667,4.0,1.0,0.0,0.0,0.0,0.0,High Breadth,High Intensity,High Support,Medium Revenue,0,57.75,5.333333333333333,16681.416666666668,3127.765625,2.6666666666666665,0.03896103896103896,2.25,0.5,0.0,23.666666666666668,90.16666666666667,1,0,1438.3333333333333,17260.0,87.61421319796955,1051.3705583756346,0.06091370558375635,1,1,1,0,0.0,0.0,0.0,0.0,58.166666666666664,6.0,34520.0
A-bad8c1,Company_34,FinTech,AU,2023-03-01,organic,Basic,7,0,0,0.0,0.0,7,2.0,0.0,223,31.857142857142858,7797,93564,1113.857142857143,13366.285714285714,0.2857142857142857,0.0,1.0,37,385,125675,11,29,0.16216216216216217,10.405405405405405,3396.6216216216217,0.2972972972972973,1.0,0.0,27.0,49.0,4.0,1.0,0.0,1.0,0.0,0.0,Medium Breadth,Low Intensity,Low Support,Low Revenue,0,55.0,5.285714285714286,17953.571428571428,3396.6216216216217,4.142857142857143,0.02857142857142857,1.5714285714285714,0.14285714285714285,0.0,27.0,49.0,1,0,1113.857142857143,13366.285714285714,34.964125560538115,419.5695067264574,0.03139013452914798,1,1,1,0,0.0,0.0,0.0,1.0,57.57142857142858,1.0,15594.0
A-44dc83,Company_35,EdTech,FR,2024-05-12,other,Basic,5,0,0,0.0,0.0,4,3.0,0.0,91,22.75,456,5472,114.0,1368.0,0.75,0.0,1.0,24,248,81119,13,16,0.125,10.333333333333334,3379.9583333333335,0.5416666666666666,7.0,0.0,40.857142857142854,76.14285714285714,4.6,1.0,98.48,0.0,0.0,1.0,Low Breadth,Low Intensity,High Support,Low Revenue,0,62.0,6.0,20279.75,3379.9583333333335,4.0,0.05241935483870968,3.25,1.75,0.0,40.857142857142854,76.14285714285714,1,0,114.0,1368.0,5.010989010989011,60.13186813186813,0.04395604395604396,1,1,1,1,98.48,0.0,1.0,0.0,62.75,7.0,912.0
A-f446b6,Company_36,DevTools,DE,2023-05-12,ads,Pro,5,1,0,0.0,1.0,9,0.0,1.0,148,16.444444444444443,11392,136704,1265.7777777777778,15189.333333333334,0.0,0.1111111111111111,0.7777777777777778,39,376,127515,31,27,0.07692307692307693,9.64102564102564,3269.6153846153848,0.7948717948717948,8.0,1.0,30.75,82.5,4.25,0.0,0.0,0.0,0.0,0.0,Medium Breadth,Low Intensity,High Support,Low Revenue,0,41.77777777777778,4.333333333333333,14168.333333333334,3269.6153846153848,3.0,0.08244680851063829,3.4444444444444446,0.8888888888888888,0.125,30.75,82.5,1,1,1265.7777777777778,15189.333333333334,76.97297297297297,923.6756756756756,0.060810810810810814,0,1,0,0,,,,,41.333333333333336,9.0,22784.0
A-a45270,Company_37,HealthTech,US,2024-06-24,ads,Enterprise,3,0,0,0.0,0.0,12,2.0,1.0,279,23.25,20131,241572,1677.5833333333333,20131.0,0.16666666666666666,0.08333333333333333,0.75,71,733,222582,53,35,0.056338028169014086,10.32394366197183,3134.957746478873,0.7464788732394366,4.0,0.0,64.0,110.0,4.0,1.0,0.0,0.0,0.0,0.0,High Breadth,High Intensity,Medium Support,Medium Revenue,0,61.083333333333336,5.916666666666667,18548.5,3134.957746478873,2.9166666666666665,0.0723055934515689,4.416666666666667,0.3333333333333333,0.0,64.0,110.0,1,0,1677.5833333333333,20131.0,72.15412186379929,865.8494623655914,0.043010752688172046,1,1,1,0,0.0,0.0,0.0,0.0,59.583333333333336,4.0,40262.0
A-854864,Company_38,FinTech,IN,2024-12-07,event,Enterprise,20,0,0,0.0,0.0,6,0.0,1.0,191,31.833333333333332,14759,177108,2459.8333333333335,29518.0,0.0,0.16666666666666666,0.8333333333333334,24,248,73517,10,17,0.16666666666666666,10.333333333333334,3063.2083333333335,0.4166666666666667,5.0,0.0,44.2,100.8,4.8,1.0,8.47,0.0,1.0,0.0,Low Breadth,Low Intensity,Medium Support,Medium Revenue,0,41.333333333333336,4.0,12252.833333333334,3063.2083333333335,2.8333333333333335,0.04032258064516129,1.6666666666666667,0.8333333333333334,0.0,44.2,100.8,1,0,2459.8333333333335,29518.0,77.27225130890052,927.2670157068063,0.031413612565445025,0,1,1,1,8.47,1.0,0.0,0.0,42.50000000000001,5.0,29518.0
A-1b7577,Company_39,Cybersecurity,US,2024-10-27,other,Pro,4,0,0,0.0,0.0,11,1.0,2.0,193,17.545454545454547,8771,105252,797.3636363636364,9568.363636363636,0.09090909090909091,0.18181818181818182,1.0,62,647,195598,33,33,0.06451612903225806,10.435483870967742,3154.8064516129034,0.532258064516129,5.0,0.0,27.2,109.4,4.0,0.0,0.0,0.0,0.0,0.0,High Breadth,High Intensity,Medium Support,Low Revenue,0,58.81818181818182,5.636363636363637,17781.636363636364,3154.8064516129034,3.0,0.05100463678516229,3.0,0.45454545454545453,0.0,27.2,109.4,1,0,797.3636363636364,9568.363636363636,45.44559585492228,545.3471502590673,0.05699481865284974,1,1,0,0,,,,,58.81818181818182,5.0,17542.0
A-05f0e5,Company_40,FinTech,US,2023-05-04,partner,Basic,32,0,0,0.0,0.0,12,0.0,0.0,541,45.083333333333336,51109,613308,4259.083333333333,51109.0,0.0,0.0,0.8333333333333334,67,706,207116,46,32,0.13432835820895522,10.537313432835822,3091.283582089552,0.6865671641791045,4.0,0.0,20.0,108.5,4.0,2.0,72.19,0.0,2.0,0.0,High Breadth,High Intensity,Medium Support,High Revenue,0,58.833333333333336,5.583333333333333,17259.666666666668,3091.283582089552,2.6666666666666665,0.06515580736543909,3.8333333333333335,0.3333333333333333,0.0,20.0,108.5,1,0,4259.083333333333,51109.0,94.4713493530499,1133.6561922365988,0.022181146025878003,0,1,1,1,36.095,1.0,0.0,0.0,57.666666666666664,4.0,102218.0
A-9077b0,Company_41,HealthTech,US,2024-08-25,ads,Basic,2,0,0,0.0,0.0,7,3.0,2.0,120,17.142857142857142,3565,42780,509.2857142857143,6111.428571428572,0.42857142857142855,0.2857142857142857,1.0,46,493,146301,31,26,0.10869565217391304,10.717391304347826,3180.4565217391305,0.6739130434782609,3.0,0.0,40.333333333333336,136.33333333333334,4.333333333333333,0.0,0.0,0.0,0.0,0.0,Low Breadth,Medium Intensity,Low Support,Low Revenue,0,70.42857142857143,6.571428571428571,20900.14285714286,3180.4565217391305,3.7142857142857144,0.06288032454361055,4.428571428571429,0.42857142857142855,0.0,40.333333333333336,136.33333333333334,1,0,509.2857142857143,6111.428571428572,29.708333333333332,356.5,0.058333333333333334,1,1,0,0,,,,,69.71428571428571,3.0,7130.0
A-7f8241,Company_42,EdTech,US,2023-03-14,organic,Pro,34,0,1,1.0,0.0,15,1.0,0.0,538,35.86666666666667,39516,474192,2634.4,31612.8,0.06666666666666667,0.0,0.6666666666666666,77,734,227186,38,34,0.06493506493506493,9.532467532467532,2950.4675324675327,0.4935064935064935,1.0,0.0,36.0,135.0,3.0,0.0,0.0,0.0,0.0,0.0,High Breadth,High Intensity,Low Support,High Revenue,1,48.93333333333333,5.133333333333334,15145.733333333334,2950.4675324675327,2.2666666666666666,0.051771117166212535,2.533333333333333,0.06666666666666667,0.0,36.0,135.0,1,0,2634.4,31612.8,73.44981412639405,881.3977695167287,0.027881040892193308,1,1,0,0,,,,,48.666666666666664,1.0,79032.0
A-2bc93d,Company_43,HealthTech,US,2023-03-14,event,Basic,14,0,0,0.0,0.0,13,1.0,1.0,380,29.23076923076923,32394,388728,2491.846153846154,29902.153846153848,0.07692307692307693,0.07692307692307693,0.8461538461538461,67,666,215735,31,33,0.07462686567164178,9.940298507462687,3219.9253731343283,0.4626865671641791,2.0,0.0,12.0,78.0,4.5,2.0,99.1,1.0,0.0,0.0,High Breadth,High Intensity,Low Support,High Revenue,0,51.23076923076923,5.153846153846154,16595.0,3219.9253731343283,2.5384615384615383,0.046546546546546545,2.3846153846153846,0.15384615384615385,0.0,12.0,78.0,1,0,2491.846153846154,29902.153846153848,85.24736842105263,1022.9684210526316,0.034210526315789476,1,1,1,1,49.55,0.0,0.0,0.5,51.38461538461539,2.0,64788.0
A-f3ff05,Company_44,FinTech,IN,2024-07-06,other,Enterprise,2,0,0,0.0,0.0,13,1.0,1.0,207,15.923076923076923,19465,233580,1497.3076923076924,17967.69230769231,0.07692307692307693,0.07692307692307693,0.9230769230769231,66,672,210327,36,28,0.06060606060606061,10.181818181818182,3186.7727272727275,0.5454545454545454,3.0,0.0,42.666666666666664,111.33333333333333,3.5,1.0,0.0,0.0,0.0,0.0,Medium Breadth,High Intensity,Low Support,Medium Revenue,0,51.69230769230769,5.076923076923077,16179.0,3186.7727272727275,2.1538461538461537,0.05357142857142857,2.769230769230769,0.23076923076923078,0.0,42.666666666666664,111.33333333333333,1,0,1497.3076923076924,17967.69230769231,94.03381642512078,1128.4057971014493,0.06280193236714976,1,1,1,0,0.0,0.0,0.0,0.0,51.07692307692308,3.0,38930.0
A-2d4502,Company_45,FinTech,IN,2024-04-29,event,Basic,7,0,0,0.0,0.0,10,1.0,0.0,296,29.6,29071,348852,2907.1,34885.2,0.1,0.0,0.7,47,465,127997,19,29,0.14893617021276595,9.893617021276595,2723.340425531915,0.40425531914893614,3.0,0.0,26.333333333333332,82.0,5.0,1.0,0.0,0.0,1.0,0.0,Medium Breadth,Medium Intensity,Low Support,High Revenue,0,46.5,4.7,12799.7,2723.340425531915,2.9,0.04086021505376344,1.9,0.3,0.0,26.333333333333332,82.0,1,0,2907.1,34885.2,98.21283783783784,1178.554054054054,0.033783783783783786,1,1,1,0,0.0,1.0,0.0,0.0,47.5,3.0,58142.0
A-6a4e2d,Company_46,EdTech,UK,2023-04-07,partner,Pro,9,0,0,0.0,0.0,11,1.0,3.0,262,23.818181818181817,10394,124728,944.9090909090909,11338.90909090909,0.09090909090909091,0.2727272727272727,0.8181818181818182,59,597,172764,31,27,0.05084745762711865,10.11864406779661,2928.2033898305085,0.5254237288135594,2.0,1.0,18.5,141.0,4.5,1.0,0.0,0.0,0.0,0.0,Medium Breadth,High Intensity,Low Support,Low Revenue,0,54.27272727272727,5.363636363636363,15705.818181818182,2928.2033898305085,2.4545454545454546,0.051926298157453935,2.8181818181818183,0.18181818181818182,0.5,18.5,141.0,1,1,944.9090909090909,11338.90909090909,39.67175572519084,476.0610687022901,0.04198473282442748,1,1,1,0,0.0,0.0,0.0,0.0,53.90909090909091,3.0,20788.0
A-eb7c38,Company_47,DevTools,AU,2024-02-25,organic,Enterprise,5,0,0,0.0,0.0,15,4.0,4.0,432,28.8,38210,458520,2547.3333333333335,30568.0,0.26666666666666666,0.26666666666666666,0.6666666666666666,70,693,203946,27,33,0.08571428571428572,9.9,2913.5142857142855,0.38571428571428573,5.0,0.0,22.4,67.4,4.333333333333333,1.0,6.26,0.0,0.0,1.0,High Breadth,High Intensity,Medium Support,High Revenue,0,46.2,4.666666666666667,13596.4,2913.5142857142855,2.2,0.03896103896103896,1.8,0.3333333333333333,0.0,22.4,67.4,1,0,2547.3333333333335,30568.0,88.44907407407408,1061.388888888889,0.034722222222222224,1,1,1,1,6.26,0.0,1.0,0.0,46.60000000000001,5.0,76420.0
A-c37601,Company_48,EdTech,US,2024-10-31,partner,Basic,6,1,0,0.0,1.0,12,3.0,2.0,191,15.916666666666666,20475,245700,1706.25,20475.0,0.25,0.16666666666666666,0.8333333333333334,48,489,131835,21,28,0.0625,10.1875,2746.5625,0.4375,4.0,0.0,42.25,83.0,3.6666666666666665,1.0,0.0,0.0,0.0,0.0,Medium Breadth,Medium Intensity,Medium Support,Medium Revenue,0,40.75,4.0,10986.25,2746.5625,2.3333333333333335,0.04294478527607362,1.75,0.3333333333333333,0.0,42.25,83.0,1,0,1706.25,20475.0,107.19895287958116,1286.3874345549739,0.06282722513089005,1,1,1,0,0.0,0.0,0.0,0.0,41.333333333333336,4.0,40950.0
A-3b5cd1,Company_49,FinTech,US,2023-09-12,event,Basic,13,1,0,0.0,1.0,13,2.0,0.0,272,20.923076923076923,23676,284112,1821.2307692307693,21854.76923076923,0.15384615384615385,0.0,0.6923076923076923,52,523,177958,24,27,0.09615384615384616,10.057692307692308,3422.269230769231,0.46153846153846156,5.0,0.0,27.4,46.6,4.0,3.0,113.17,0.0,1.0,0.0,Medium Breadth,Medium Intensity,Medium Support,Medium Revenue,0,40.23076923076923,4.0,13689.076923076924,3422.269230769231,2.076923076923077,0.045889101338432124,1.8461538461538463,0.38461538461538464,0.0,27.4,46.6,1,0,1821.2307692307693,21854.76923076923,87.04411764705883,1044.5294117647059,0.04779411764705882,1,1,1,1,37.723333333333336,0.3333333333333333,0.0,0.0,40.46153846153847,5.0,47352.0
A-b2225d,Company_50,FinTech,US,2024-03-08,ads,Basic,47,0,1,1.0,0.0,12,5.0,0.0,567,47.25,19088,229056,1590.6666666666667,19088.0,0.4166666666666667,0.0,0.75,73,696,236693,60,34,0.0684931506849315,9.534246575342467,3242.3698630136987,0.821917808219178,2.0,0.0,42.0,38.0,3.0,3.0,0.0,1.0,1.0,0.0,High Breadth,High Intensity,Low Support,Medium Revenue,1,58.0,6.083333333333333,19724.416666666668,3242.3698630136987,2.8333333333333335,0.08620689655172414,5.0,0.16666666666666666,0.0,42.0,38.0,1,0,1590.6666666666667,19088.0,33.66490299823633,403.978835978836,0.021164021164021163,1,1,1,0,0.0,0.3333333333333333,0.0,0.3333333333333333,55.833333333333336,2.0,38176.0
A-94f8c9,Company_51,HealthTech,US,2024-03-29,other,Basic,13,0,0,0.0,0.0,16,3.0,1.0,317,19.8125,31989,383868,1999.3125,23991.75,0.1875,0.0625,0.875,77,746,204124,63,33,0.09090909090909091,9.688311688311689,2650.961038961039,0.8181818181818182,3.0,0.0,47.333333333333336,87.66666666666667,5.0,1.0,0.0,0.0,0.0,0.0,High Breadth,High Intensity,Low Support,High Revenue,0,46.625,4.8125,12757.75,2650.961038961039,2.0625,0.08445040214477212,3.9375,0.1875,0.0,47.333333333333336,87.66666666666667,1,0,1999.3125,23991.75,100.91167192429022,1210.9400630914827,0.050473186119873815,1,1,1,0,0.0,0.0,0.0,0.0,44.75,3.0,63978.0
A-02fac6,Company_52,FinTech,US,2023-04-06,event,Pro,22,0,0,0.0,0.0,11,0.0,0.0,280,25.454545454545453,26410,316920,2400.909090909091,28810.909090909092,0.0,0.0,0.8181818181818182,53,514,169854,34,32,0.09433962264150944,9.69811320754717,3204.7924528301887,0.6415094339622641,6.0,0.0,23.333333333333332,100.5,4.0,1.0,0.0,0.0,0.0,0.0,High Breadth,Medium Intensity,High Support,High Revenue,0,46.72727272727273,4.818181818181818,15441.272727272728,3204.7924528301887,2.909090909090909,0.06614785992217899,3.090909090909091,0.5454545454545454,0.0,23.333333333333332,100.5,1,0,2400.909090909091,28810.909090909092,94.32142857142857,1131.857142857143,0.039285714285714285,0,1,1,0,0.0,0.0,0.0,0.0,46.54545454545454,6.0,52820.0
A-c1dfe1,Company_53,DevTools,DE,2023-08-07,ads,Pro,26,0,0,0.0,0.0,8,0.0,1.0,230,28.75,25790,309480,3223.75,38685.0,0.0,0.125,0.625,39,375,127687,30,24,0.10256410256410256,9.615384615384615,3274.025641025641,0.7692307692307693,3.0,0.0,50.333333333333336,93.66666666666667,4.0,2.0,0.0,0.0,1.0,0.0,Low Breadth,Low Intensity,Low Support,High Revenue,0,46.875,4.875,15960.875,3274.025641025641,3.0,0.08,3.75,0.375,0.0,50.333333333333336,93.66666666666667,1,0,3223.75,38685.0,112.1304347826087,1345.5652173913043,0.034782608695652174,0,1,1,0,0.0,0.5,0.0,0.0,46.125,3.0,51580.0
A-32728c,Company_54,DevTools,US,2023-01-03,event,Pro,20,0,1,1.0,0.0,8,2.0,1.0,182,22.75,4498,53976,562.25,6747.0,0.25,0.125,1.0,41,418,115325,22,26,0.14634146341463414,10.195121951219512,2812.8048780487807,0.5365853658536586,2.0,0.0,34.5,61.5,3.5,3.0,7.58,1.0,2.0,0.0,Low Breadth,Low Intensity,Low Support,Low Revenue,1,52.25,5.125,14415.625,2812.8048780487807,3.25,0.05263157894736842,2.75,0.25,0.0,34.5,61.5,1,0,562.25,6747.0,24.714285714285715,296.57142857142856,0.04395604395604396,1,1,1,1,2.526666666666667,0.6666666666666666,0.0,0.3333333333333333,52.75,2.0,8996.0
A-4c38bc,Company_55,HealthTech,UK,2024-03-09,event,Basic,36,0,1,1.0,0.0,16,1.0,2.0,576,36.0,48060,576720,3003.75,36045.0,0.0625,0.125,0.875,81,818,271358,27,37,0.12345679012345678,10.098765432098766,3350.098765432099,0.3333333333333333,3.0,0.0,48.333333333333336,43.0,3.5,0.0,0.0,0.0,0.0,0.0,High Breadth,High Intensity,Low Support,High Revenue,1,51.125,5.0625,16959.875,3350.098765432099,2.3125,0.03300733496332518,1.6875,0.1875,0.0,48.333333333333336,43.0,1,0,3003.75,36045.0,83.4375,1001.25,0.027777777777777776,1,1,0,0,,,,,51.75,3.0,96120.0
A-1b707d,Company_56,Cybersecurity,US,2023-07-14,organic,Enterprise,1,0,0,0.0,0.0,8,1.0,1.0,130,16.25,9332,111984,1166.5,13998.0,0.125,0.125,0.625,38,399,110456,12,27,0.07894736842105263,10.5,2906.7368421052633,0.3157894736842105,3.0,0.0,42.666666666666664,75.33333333333333,0.0,1.0,0.0,1.0,0.0,0.0,Medium Breadth,Low Intensity,Low Support,Low Revenue,0,49.875,4.75,13807.0,2906.7368421052633,3.375,0.03007518796992481,1.5,0.375,0.0,42.666666666666664,75.33333333333333,1,0,1166.5,13998.0,71.78461538461538,861.4153846153846,0.06153846153846154,1,1,1,0,0.0,0.0,0.0,1.0,51.75,3.0,18664.0
A-6f8ad2,Company_57,EdTech,IN,2024-07-09,organic,Basic,1,0,0,0.0,0.0,17,2.0,2.0,401,23.58823529411765,25928,311136,1525.1764705882354,18302.117647058825,0.11764705882352941,0.11764705882352941,0.5882352941176471,88,924,261489,59,38,0.14772727272727273,10.5,2971.465909090909,0.6704545454545454,4.0,0.0,35.25,37.25,4.333333333333333,0.0,0.0,0.0,0.0,0.0,High Breadth,High Intensity,Medium Support,High Revenue,0,54.35294117647059,5.176470588235294,15381.70588235294,2971.465909090909,2.235294117647059,0.06385281385281386,3.4705882352941178,0.23529411764705882,0.0,35.25,37.25,1,0,1525.1764705882354,18302.117647058825,64.65835411471322,775.9002493765586,0.04239401496259352,1,1,0,0,,,,,53.11764705882353,4.0,51856.0
A-4d1e75,Company_58,DevTools,US,2024-08-21,other,Basic,20,0,0,0.0,0.0,13,2.0,0.0,393,30.23076923076923,31390,376680,2414.6153846153848,28975.384615384617,0.15384615384615385,0.0,0.6923076923076923,51,477,148106,25,28,0.09803921568627451,9.352941176470589,2904.0392156862745,0.49019607843137253,2.0,0.0,15.0,98.5,4.0,1.0,0.0,0.0,0.0,0.0,Medium Breadth,Medium Intensity,Low Support,High Revenue,0,36.69230769230769,3.923076923076923,11392.76923076923,2904.0392156862745,2.1538461538461537,0.05241090146750524,1.9230769230769231,0.15384615384615385,0.0,15.0,98.5,1,0,2414.6153846153848,28975.384615384617,79.87277353689568,958.4732824427481,0.03307888040712468,1,1,1,0,0.0,0.0,0.0,0.0,36.92307692307693,2.0,62780.0
A-9ee962,Company_59,HealthTech,US,2023-02-28,ads,Basic,9,0,1,1.0,0.0,9,2.0,2.0,138,15.333333333333334,9420,113040,1046.6666666666667,12560.0,0.2222222222222222,0.2222222222222222,0.7777777777777778,39,439,120226,17,25,0.07692307692307693,11.256410256410257,3082.7179487179487,0.4358974358974359,3.0,0.0,37.0,69.66666666666667,4.0,1.0,0.0,0.0,0.0,1.0,Low Breadth,Medium Intensity,Low Support,Low Revenue,1,48.77777777777778,4.333333333333333,13358.444444444445,3082.7179487179487,2.7777777777777777,0.0387243735763098,1.8888888888888888,0.3333333333333333,0.0,37.0,69.66666666666667,1,0,1046.6666666666667,12560.0,68.26086956521739,819.1304347826087,0.06521739130434782,1,1,1,0,0.0,0.0,1.0,0.0,49.66666666666667,3.0,18840.0
A-378b99,Company_60,EdTech,UK,2024-09-01,ads,Pro,8,1,0,0.0,1.0,12,2.0,1.0,272,22.666666666666668,12116,145392,1009.6666666666666,12116.0,0.16666666666666666,0.08333333333333333,1.0,58,565,187525,38,33,0.08620689655172414,9.741379310344827,3233.189655172414,0.6551724137931034,6.0,0.0,28.5,78.83333333333333,4.5,1.0,0.0,0.0,0.0,0.0,High Breadth,Medium Intensity,High Support,Low Revenue,0,47.083333333333336,4.833333333333333,15627.083333333334,3233.189655172414,2.75,0.06725663716814159,3.1666666666666665,0.5,0.0,28.5,78.83333333333333,1,0,1009.6666666666666,12116.0,44.544117647058826,534.5294117647059,0.04411764705882353,1,1,1,0,0.0,0.0,0.0,0.0,46.66666666666667,6.0,24232.0
A-94d3da,Company_61,HealthTech,US,2023-05-03,other,Basic,41,0,0,0.0,0.0,12,5.0,1.0,492,41.0,22673,272076,1889.4166666666667,22673.0,0.4166666666666667,0.08333333333333333,0.6666666666666666,48,464,150051,25,29,0.10416666666666667,9.666666666666666,3126.0625,0.5208333333333334,6.0,0.0,26.833333333333332,80.5,3.5,1.0,0.0,0.0,0.0,0.0,Medium Breadth,Medium Intensity,High Support,Medium Revenue,0,38.666666666666664,4.0,12504.25,3126.0625,2.4166666666666665,0.05387931034482758,2.0833333333333335,0.5,0.0,26.833333333333332,80.5,1,0,1889.4166666666667,22673.0,46.083333333333336,553.0,0.024390243902439025,1,1,1,0,0.0,0.0,0.0,0.0,38.99999999999999,6.0,45346.0
A-e351e1,Company_62,EdTech,US,2024-09-26,other,Enterprise,33,0,0,0.0,0.0,5,1.0,1.0,165,33.0,3498,41976,699.6,8395.2,0.2,0.2,0.8,29,295,102452,22,18,0.10344827586206896,10.172413793103448,3532.8275862068967,0.7586206896551724,4.0,0.0,17.0,65.25,3.75,3.0,113.84,1.0,1.0,2.0,Low Breadth,Low Intensity,Medium Support,Low Revenue,0,59.0,5.8,20490.4,3532.8275862068967,3.6,0.07457627118644068,4.4,0.8,0.0,17.0,65.25,1,0,699.6,8395.2,21.2,254.4,0.030303030303030304,1,1,1,1,37.946666666666665,0.3333333333333333,0.6666666666666666,0.3333333333333333,58.2,4.0,6996.0
A-9badbd,Company_63,Cybersecurity,DE,2024-06-19,ads,Enterprise,5,1,0,0.0,1.0,13,2.0,2.0,454,34.92307692307692,32477,389724,2498.230769230769,29978.76923076923,0.15384615384615385,0.15384615384615385,0.7692307692307693,70,729,220382,45,33,0.11428571428571428,10.414285714285715,3148.3142857142857,0.6428571428571429,5.0,0.0,30.2,102.6,5.0,0.0,0.0,0.0,0.0,0.0,High Breadth,High Intensity,Medium Support,High Revenue,0,56.07692307692308,5.384615384615385,16952.46153846154,3148.3142857142857,2.5384615384615383,0.06172839506172839,3.4615384615384617,0.38461538461538464,0.0,30.2,102.6,1,0,2498.230769230769,29978.76923076923,71.5352422907489,858.4229074889868,0.028634361233480177,1,1,0,0,,,,,55.15384615384616,5.0,64954.0
A-7e0a10,Company_64,FinTech,US,2023-11-18,ads,Enterprise,46,0,0,0.0,0.0,10,0.0,0.0,484,48.4,41116,493392,4111.6,49339.2,0.0,0.0,0.7,50,511,173162,35,34,0.1,10.22,3463.24,0.7,5.0,0.0,39.4,62.6,4.0,1.0,0.0,0.0,0.0,0.0,High Breadth,Medium Intensity,Medium Support,High Revenue,0,51.1,5.0,17316.2,3463.24,3.4,0.0684931506849315,3.5,0.5,0.0,39.4,62.6,1,0,4111.6,49339.2,84.9504132231405,1019.404958677686,0.02066115702479339,0,1,1,0,0.0,0.0,0.0,0.0,51.0,5.0,82232.0
A-118d55,Company_65,Cybersecurity,US,2024-10-22,organic,Basic,8,0,0,0.0,0.0,12,0.0,1.0,201,16.75,23919,287028,1993.25,23919.0,0.0,0.08333333333333333,0.75,60,599,168143,33,29,0.08333333333333333,9.983333333333333,2802.383333333333,0.55,5.0,0.0,24.2,56.8,4.333333333333333,2.0,0.0,0.0,1.0,1.0,Medium Breadth,High Intensity,Medium Support,Medium Revenue,0,49.916666666666664,5.0,14011.916666666666,2802.383333333333,2.4166666666666665,0.05509181969949917,2.75,0.4166666666666667,0.0,24.2,56.8,1,0,1993.25,23919.0,119.0,1428.0,0.05970149253731343,0,1,1,0,0.0,0.5,0.5,0.0,49.58333333333333,5.0,47838.0
A-526d93,Company_66,HealthTech,FR,2024-04-14,organic,Basic,43,0,0,0.0,0.0,9,2.0,1.0,395,43.888888888888886,39201,470412,4355.666666666667,52268.0,0.2222222222222222,0.1111111111111111,0.5555555555555556,56,565,159213,45,28,0.08928571428571429,10.089285714285714,2843.089285714286,0.8035714285714286,5.0,1.0,51.4,134.6,3.5,3.0,41.17,0.0,2.0,0.0,Medium Breadth,Medium Intensity,Medium Support,High Revenue,0,62.77777777777778,6.222222222222222,17690.333333333332,2843.089285714286,3.111111111111111,0.07964601769911504,5.0,0.5555555555555556,0.2,51.4,134.6,1,1,4355.666666666667,52268.0,99.24303797468355,1190.9164556962025,0.02278481012658228,1,1,1,1,13.723333333333334,0.6666666666666666,0.0,0.0,60.888888888888886,6.0,78402.0
A-f92792,Company_67,FinTech,US,2024-07-04,ads,Pro,1,0,0,0.0,0.0,14,3.0,0.0,202,14.428571428571429,18807,225684,1343.357142857143,16120.285714285714,0.21428571428571427,0.0,0.5714285714285714,53,528,149124,31,32,0.11320754716981132,9.962264150943396,2813.6603773584907,0.5849056603773585,2.0,0.0,45.0,82.0,4.0,1.0,0.0,1.0,0.0,0.0,High Breadth,Medium Intensity,Low Support,Medium Revenue,0,37.714285714285715,3.7857142857142856,10651.714285714286,2813.6603773584907,2.2857142857142856,0.058712121212121215,2.2142857142857144,0.14285714285714285,0.0,45.0,82.0,1,0,1343.357142857143,16120.285714285714,93.10396039603961,1117.2475247524753,0.06930693069306931,1,1,1,0,0.0,0.0,0.0,1.0,37.785714285714285,2.0,37614.0
A-84ebe4,Company_68,FinTech,US,2023-03-12,ads,Pro,18,1,1,1.0,1.0,11,2.0,2.0,326,29.636363636363637,27994,335928,2544.909090909091,30538.909090909092,0.18181818181818182,0.18181818181818182,0.9090909090909091,42,396,123655,26,27,0.16666666666666666,9.428571428571429,2944.1666666666665,0.6190476190476191,4.0,0.0,29.5,135.5,4.0,2.0,0.0,0.0,0.0,0.0,Medium Breadth,Low Intensity,Medium Support,High Revenue,1,36.0,3.8181818181818183,11241.363636363636,2944.1666666666665,2.4545454545454546,0.06565656565656566,2.3636363636363638,0.36363636363636365,0.0,29.5,135.5,1,0,2544.909090909091,30538.909090909092,85.87116564417178,1030.4539877300613,0.03374233128834356,1,1,1,0,0.0,0.0,0.0,0.0,36.090909090909086,4.0,55988.0
A-5b4ebb,Company_69,Cybersecurity,UK,2024-07-10,other,Basic,21,1,1,1.0,1.0,13,1.0,1.0,368,28.307692307692307,27803,333636,2138.6923076923076,25664.30769230769,0.07692307692307693,0.07692307692307693,0.8461538461538461,70,692,196300,25,34,0.08571428571428572,9.885714285714286,2804.285714285714,0.35714285714285715,5.0,0.0,35.4,63.0,4.75,0.0,0.0,0.0,0.0,0.0,High Breadth,High Intensity,Medium Support,High Revenue,1,53.23076923076923,5.384615384615385,15100.0,2804.285714285714,2.6153846153846154,0.036127167630057806,1.9230769230769231,0.38461538461538464,0.0,35.4,63.0,1,0,2138.6923076923076,25664.30769230769,75.55163043478261,906.6195652173913,0.035326086956521736,1,1,0,0,,,,,53.92307692307693,5.0,55606.0
A-2922b6,Company_70,HealthTech,US,2024-11-14,organic,Basic,15,0,0,0.0,0.0,6,0.0,1.0,151,25.166666666666668,10669,128028,1778.1666666666667,21338.0,0.0,0.16666666666666666,0.8333333333333334,37,393,117237,13,27,0.05405405405405406,10.621621621621621,3168.5675675675675,0.35135135135135137,2.0,0.0,15.5,103.0,4.0,1.0,0.0,0.0,0.0,0.0,Medium Breadth,Low Intensity,Low Support,Low Revenue,0,65.5,6.166666666666667,19539.5,3168.5675675675675,4.5,0.03307888040712468,2.1666666666666665,0.3333333333333333,0.0,15.5,103.0,1,0,1778.1666666666667,21338.0,70.65562913907284,847.8675496688742,0.039735099337748346,0,1,1,0,0.0,0.0,0.0,0.0,67.83333333333333,2.0,21338.0
A-9b9fe9,Company_71,EdTech,AU,2023-09-28,other,Basic,5,0,0,0.0,0.0,12,2.0,1.0,331,27.583333333333332,19725,236700,1643.75,19725.0,0.16666666666666666,0.08333333333333333,0.8333333333333334,58,597,196701,22,30,0.05172413793103448,10.293103448275861,3391.396551724138,0.3793103448275862,4.0,0.0,33.5,156.5,4.0,2.0,27.92,0.0,0.0,0.0,Medium Breadth,High Intensity,Medium Support,Medium Revenue,0,49.75,4.833333333333333,16391.75,3391.396551724138,2.5,0.03685092127303183,1.8333333333333333,0.3333333333333333,0.0,33.5,156.5,1,0,1643.75,19725.0,59.59214501510574,715.1057401812689,0.03625377643504532,1,1,1,1,13.96,0.0,0.0,0.0,50.416666666666664,4.0,39450.0
A-a8b49c,Company_72,Cybersecurity,UK,2023-10-06,partner,Basic,7,0,0,0.0,0.0,12,2.0,0.0,178,14.833333333333334,11567,138804,963.9166666666666,11567.0,0.16666666666666666,0.0,0.9166666666666666,54,545,183399,43,27,0.018518518518518517,10.092592592592593,3396.277777777778,0.7962962962962963,1.0,0.0,72.0,105.0,4.0,1.0,0.0,0.0,0.0,0.0,Medium Breadth,Medium Intensity,Low Support,Low Revenue,0,45.416666666666664,4.5,15283.25,3396.277777777778,2.25,0.07889908256880734,3.5833333333333335,0.08333333333333333,0.0,72.0,105.0,1,0,963.9166666666666,11567.0,64.98314606741573,779.7977528089888,0.06741573033707865,1,1,1,0,0.0,0.0,0.0,0.0,44.08333333333333,1.0,23134.0
A-9174e0,Company_73,Cybersecurity,US,2024-12-04,partner,Basic,37,0,0,0.0,0.0,15,2.0,1.0,609,40.6,53976,647712,3598.4,43180.8,0.13333333333333333,0.06666666666666667,0.8,69,689,206138,61,34,0.08695652173913043,9.985507246376812,2987.5072463768115,0.8840579710144928,2.0,0.0,39.0,167.0,5.0,0.0,0.0,0.0,0.0,0.0,High Breadth,High Intensity,Low Support,High Revenue,0,45.93333333333333,4.6,13742.533333333333,2987.5072463768115,2.2666666666666666,0.08853410740203194,4.066666666666666,0.13333333333333333,0.0,39.0,167.0,1,0,3598.4,43180.8,88.63054187192118,1063.5665024630541,0.024630541871921183,1,1,0,0,,,,,44.133333333333326,2.0,107952.0
A-a1bbb6,Company_74,DevTools,CA,2023-04-05,organic,Basic,1,0,0,0.0,0.0,8,1.0,1.0,113,14.125,14402,172824,1800.25,21603.0,0.125,0.125,0.625,37,366,118465,20,23,0.1891891891891892,9.891891891891891,3201.7567567567567,0.5405405405405406,3.0,0.0,17.666666666666668,120.66666666666667,4.0,0.0,0.0,0.0,0.0,0.0,Low Breadth,Low Intensity,Low Support,Medium Revenue,0,45.75,4.625,14808.125,3201.7567567567567,2.875,0.0546448087431694,2.5,0.375,0.0,17.666666666666668,120.66666666666667,1,0,1800.25,21603.0,127.45132743362832,1529.41592920354,0.07079646017699115,1,1,0,0,,,,,46.125,3.0,28804.0
A-c45b23,Company_75,FinTech,UK,2023-12-08,partner,Basic,5,0,0,0.0,0.0,12,3.0,1.0,131,10.916666666666666,8504,102048,708.6666666666666,8504.0,0.25,0.08333333333333333,0.75,59,581,181056,30,32,0.1694915254237288,9.847457627118644,3068.7457627118642,0.5084745762711864,3.0,0.0,36.666666666666664,51.666666666666664,3.0,1.0,0.0,1.0,0.0,0.0,High Breadth,Medium Intensity,Low Support,Low Revenue,0,48.416666666666664,4.916666666666667,15088.0,3068.7457627118642,2.6666666666666665,0.05163511187607573,2.5,0.25,0.0,36.666666666666664,51.666666666666664,1,0,708.6666666666666,8504.0,64.91603053435115,778.9923664122138,0.0916030534351145,1,1,1,0,0.0,0.0,0.0,1.0,48.58333333333333,3.0,17008.0
A-02cd81,Company_76,HealthTech,IN,2024-03-28,other,Basic,44,0,0,0.0,0.0,14,3.0,1.0,616,44.0,32956,395472,2354.0,28248.0,0.21428571428571427,0.07142857142857142,0.7857142857142857,72,684,219304,28,31,0.06944444444444445,9.5,3045.8888888888887,0.3888888888888889,3.0,1.0,17.333333333333332,84.66666666666667,4.5,1.0,0.0,0.0,0.0,0.0,Medium Breadth,High Intensity,Low Support,High Revenue,0,48.857142857142854,5.142857142857143,15664.57142857143,3045.8888888888887,2.2142857142857144,0.04093567251461988,2.0,0.21428571428571427,0.3333333333333333,17.333333333333332,84.66666666666667,1,1,2354.0,28248.0,53.5,642.0,0.022727272727272728,1,1,1,0,0.0,0.0,0.0,0.0,49.07142857142857,4.0,65912.0
A-ee42db,Company_77,EdTech,DE,2023-04-25,ads,Enterprise,13,0,0,0.0,0.0,12,4.0,0.0,315,26.25,11567,138804,963.9166666666666,11567.0,0.3333333333333333,0.0,0.9166666666666666,54,511,150876,33,31,0.1111111111111111,9.462962962962964,2794.0,0.6111111111111112,4.0,0.0,33.75,98.25,3.0,4.0,23.52,0.0,1.0,1.0,Medium Breadth,Medium Intensity,Medium Support,Low Revenue,0,42.583333333333336,4.5,12573.0,2794.0,2.5833333333333335,0.06457925636007827,2.75,0.3333333333333333,0.0,33.75,98.25,1,0,963.9166666666666,11567.0,36.72063492063492,440.64761904761906,0.0380952380952381,1,1,1,1,5.88,0.25,0.25,0.0,42.41666666666667,4.0,23134.0
A-432483,Company_78,Cybersecurity,US,2023-02-06,ads,Pro,4,0,0,0.0,0.0,9,1.0,3.0,191,21.22222222222222,25813,309756,2868.1111111111113,34417.333333333336,0.1111111111111111,0.3333333333333333,0.7777777777777778,45,451,151460,28,25,0.08888888888888889,10.022222222222222,3365.777777777778,0.6222222222222222,1.0,0.0,51.0,128.0,0.0,0.0,0.0,0.0,0.0,0.0,Low Breadth,Medium Intensity,Low Support,High Revenue,0,50.111111111111114,5.0,16828.88888888889,3365.777777777778,2.7777777777777777,0.06208425720620843,3.111111111111111,0.1111111111111111,0.0,51.0,128.0,1,0,2868.1111111111113,34417.333333333336,135.14659685863873,1621.7591623036649,0.04712041884816754,1,1,0,0,,,,,49.77777777777778,1.0,51626.0
A-9208f0,Company_79,EdTech,US,2023-05-11,organic,Pro,1,0,1,1.0,0.0,8,3.0,1.0,153,19.125,3511,42132,438.875,5266.5,0.375,0.125,0.875,53,538,158701,31,29,0.11320754716981132,10.150943396226415,2994.3584905660377,0.5849056603773585,8.0,1.0,41.25,59.75,3.3333333333333335,4.0,66.37,2.0,1.0,0.0,Medium Breadth,Medium Intensity,High Support,Low Revenue,1,67.25,6.625,19837.625,2994.3584905660377,3.625,0.05762081784386617,3.875,1.0,0.125,41.25,59.75,1,1,438.875,5266.5,22.947712418300654,275.37254901960785,0.05228758169934641,1,1,1,1,16.5925,0.25,0.0,0.5,67.0,9.0,7022.0
A-98a59a,Company_80,FinTech,UK,2023-08-04,partner,Enterprise,56,0,0,0.0,0.0,10,1.0,0.0,652,65.2,36456,437472,3645.6,43747.2,0.1,0.0,0.6,44,455,124429,21,27,0.18181818181818182,10.340909090909092,2827.931818181818,0.4772727272727273,3.0,0.0,37.333333333333336,74.0,4.5,1.0,0.0,0.0,1.0,0.0,Medium Breadth,Medium Intensity,Low Support,High Revenue,0,45.5,4.4,12442.9,2827.931818181818,2.7,0.046153846153846156,2.1,0.3,0.0,37.333333333333336,74.0,1,0,3645.6,43747.2,55.91411042944785,670.9693251533743,0.015337423312883436,1,1,1,0,0.0,1.0,0.0,0.0,46.1,3.0,72912.0
A-fe79a5,Company_81,HealthTech,IN,2024-02-21,ads,Basic,9,1,0,0.0,1.0,10,4.0,2.0,114,11.4,13532,162384,1353.2,16238.4,0.4,0.2,0.9,33,335,96672,17,22,0.06060606060606061,10.151515151515152,2929.4545454545455,0.5151515151515151,4.0,0.0,28.5,61.0,5.0,0.0,0.0,0.0,0.0,0.0,Low Breadth,Low Intensity,Medium Support,Low Revenue,0,33.5,3.3,9667.2,2929.4545454545455,2.2,0.050746268656716415,1.7,0.4,0.0,28.5,61.0,1,0,1353.2,16238.4,118.70175438596492,1424.421052631579,0.08771929824561403,1,1,0,0,,,,,34.0,4.0,27064.0
A-726cfa,Company_82,DevTools,US,2023-07-01,partner,Pro,11,0,0,0.0,0.0,19,2.0,2.0,400,21.05263157894737,34782,417384,1830.6315789473683,21967.57894736842,0.10526315789473684,0.10526315789473684,0.8421052631578947,98,993,281986,45,40,0.15306122448979592,10.13265306122449,2877.408163265306,0.45918367346938777,3.0,0.0,35.666666666666664,128.33333333333334,4.0,1.0,122.11,0.0,0.0,0.0,High Breadth,High Intensity,Low Support,High Revenue,0,52.26315789473684,5.157894736842105,14841.368421052632,2877.408163265306,2.1052631578947367,0.045317220543806644,2.3684210526315788,0.15789473684210525,0.0,35.666666666666664,128.33333333333334,1,0,1830.6315789473683,21967.57894736842,86.955,1043.46,0.0475,1,1,1,1,122.11,0.0,0.0,0.0,52.0,3.0,69564.0
A-c43359,Company_83,FinTech,US,2024-11-16,organic,Pro,38,0,0,0.0,0.0,8,2.0,2.0,304,38.0,12312,147744,1539.0,18468.0,0.25,0.25,1.0,47,461,147051,32,28,0.10638297872340426,9.808510638297872,3128.744680851064,0.6808510638297872,3.0,0.0,26.666666666666668,107.33333333333333,4.0,2.0,8.92,0.0,1.0,0.0,Medium Breadth,Medium Intensity,Low Support,Low Revenue,0,57.625,5.875,18381.375,3128.744680851064,3.5,0.06941431670281996,4.0,0.375,0.0,26.666666666666668,107.33333333333333,1,0,1539.0,18468.0,40.5,486.0,0.02631578947368421,1,1,1,1,4.46,0.5,0.0,0.0,57.125,3.0,24624.0
A-271f46,Company_84,DevTools,US,2023-02-09,event,Pro,38,0,1,1.0,0.0,8,2.0,0.0,312,39.0,19604,235248,2450.5,29406.0,0.25,0.0,1.0,38,373,114563,16,25,0.02631578947368421,9.81578947368421,3014.815789473684,0.42105263157894735,1.0,0.0,36.0,79.0,0.0,2.0,0.0,1.0,0.0,0.0,Low Breadth,Low Intensity,Low Support,Medium Revenue,1,46.625,4.75,14320.375,3014.815789473684,3.125,0.04289544235924933,2.0,0.125,0.0,36.0,79.0,1,0,2450.5,29406.0,62.833333333333336,754.0,0.02564102564102564,1,1,1,0,0.0,0.0,0.0,0.5,47.75,1.0,39208.0
A-157070,Company_85,FinTech,US,2023-11-09,ads,Pro,16,0,0,0.0,0.0,16,2.0,4.0,396,24.75,27506,330072,1719.125,20629.5,0.125,0.25,0.875,71,696,186928,26,37,0.09859154929577464,9.80281690140845,2632.788732394366,0.36619718309859156,3.0,1.0,42.333333333333336,118.0,3.0,2.0,0.0,0.0,0.0,0.0,High Breadth,High Intensity,Low Support,High Revenue,0,43.5,4.4375,11683.0,2632.788732394366,2.3125,0.03735632183908046,1.625,0.1875,0.3333333333333333,42.333333333333336,118.0,1,1,1719.125,20629.5,69.45959595959596,833.5151515151515,0.04040404040404041,1,1,1,0,0.0,0.0,0.0,0.0,44.1875,4.0,55012.0
A-40a557,Company_86,Cybersecurity,AU,2023-12-03,partner,Pro,16,1,0,0.0,1.0,9,1.0,1.0,194,21.555555555555557,23324,279888,2591.5555555555557,31098.666666666668,0.1111111111111111,0.1111111111111111,1.0,39,402,114217,17,25,0.07692307692307693,10.307692307692308,2928.641025641026,0.4358974358974359,7.0,0.0,30.571428571428573,94.71428571428571,3.6666666666666665,1.0,0.0,0.0,0.0,0.0,Low Breadth,Low Intensity,High Support,Medium Revenue,0,44.666666666666664,4.333333333333333,12690.777777777777,2928.641025641026,2.7777777777777777,0.04228855721393035,1.8888888888888888,0.7777777777777778,0.0,30.571428571428573,94.71428571428571,1,0,2591.5555555555557,31098.666666666668,120.22680412371135,1442.721649484536,0.04639175257731959,1,1,1,0,0.0,0.0,0.0,0.0,45.55555555555556,7.0,46648.0
A-66224b,Company_87,HealthTech,US,2024-10-18,other,Pro,92,1,0,0.0,1.0,12,4.0,1.0,1123,93.58333333333333,69184,830208,5765.333333333333,69184.0,0.3333333333333333,0.08333333333333333,0.75,61,626,185229,29,34,0.16393442622950818,10.262295081967213,3036.5409836065573,0.47540983606557374,6.0,0.0,39.833333333333336,82.5,3.5,0.0,0.0,0.0,0.0,0.0,High Breadth,High Intensity,High Support,High Revenue,0,52.166666666666664,5.083333333333333,15435.75,3036.5409836065573,2.8333333333333335,0.0463258785942492,2.4166666666666665,0.5,0.0,39.833333333333336,82.5,1,0,5765.333333333333,69184.0,61.60641139804096,739.2769367764915,0.01068566340160285,1,1,0,0,,,,,52.583333333333336,6.0,138368.0
A-91e948,Company_88,EdTech,AU,2023-01-29,partner,Basic,41,0,0,0.0,0.0,7,1.0,0.0,287,41.0,21894,262728,3127.714285714286,37532.57142857143,0.14285714285714285,0.0,1.0,40,404,115260,16,23,0.0,10.1,2881.5,0.4,0.0,0.0,0.0,0.0,0.0,0.0,0.0,0.0,0.0,0.0,Low Breadth,Low Intensity,Low Support,Medium Revenue,0,57.714285714285715,5.714285714285714,16465.714285714286,2881.5,3.2857142857142856,0.039603960396039604,2.2857142857142856,0.0,,,,0,0,3127.714285714286,37532.57142857143,76.28571428571429,915.4285714285714,0.024390243902439025,1,1,0,0,,,,,58.714285714285715,0.0,43788.0
A-104f1a,Company_89,Cybersecurity,US,2024-08-17,other,Pro,24,0,0,0.0,0.0,8,1.0,1.0,338,42.25,12617,151404,1577.125,18925.5,0.125,0.125,0.875,44,438,156949,22,28,0.045454545454545456,9.954545454545455,3567.0227272727275,0.5,5.0,1.0,33.2,50.4,3.75,3.0,0.0,0.0,0.0,0.0,Medium Breadth,Medium Intensity,Medium Support,Low Revenue,0,54.75,5.5,19618.625,3567.0227272727275,3.5,0.0502283105022831,2.75,0.625,0.2,33.2,50.4,1,1,1577.125,18925.5,37.328402366863905,447.9408284023669,0.023668639053254437,1,1,1,0,0.0,0.0,0.0,0.0,55.5,6.0,25234.0
A-7988d1,Company_90,Cybersecurity,US,2023-12-20,other,Basic,33,0,0,0.0,0.0,9,3.0,1.0,356,39.55555555555556,10692,128304,1188.0,14256.0,0.3333333333333333,0.1111111111111111,0.7777777777777778,46,449,138265,28,31,0.15217391304347827,9.76086956521739,3005.7608695652175,0.6086956521739131,3.0,0.0,35.333333333333336,65.33333333333333,4.333333333333333,3.0,16.89,0.0,0.0,0.0,Medium Breadth,Medium Intensity,Low Support,Low Revenue,0,49.888888888888886,5.111111111111111,15362.777777777777,3005.7608695652175,3.4444444444444446,0.062360801781737196,3.111111111111111,0.3333333333333333,0.0,35.333333333333336,65.33333333333333,1,0,1188.0,14256.0,30.03370786516854,360.40449438202245,0.025280898876404494,1,1,1,1,5.63,0.0,0.0,0.0,50.222222222222214,3.0,21384.0
A-faa28c,Company_91,HealthTech,US,2024-01-30,organic,Enterprise,48,0,0,0.0,0.0,14,3.0,2.0,690,49.285714285714285,58404,700848,4171.714285714285,50060.57142857143,0.21428571428571427,0.14285714285714285,0.7857142857142857,59,585,162007,24,25,0.0847457627118644,9.915254237288135,2745.8813559322034,0.4067796610169492,4.0,1.0,52.25,115.5,4.666666666666667,2.0,0.0,0.0,0.0,0.0,Low Breadth,High Intensity,Medium Support,High Revenue,0,41.785714285714285,4.214285714285714,11571.92857142857,2745.8813559322034,1.7857142857142858,0.041025641025641026,1.7142857142857142,0.2857142857142857,0.25,52.25,115.5,1,1,4171.714285714285,50060.57142857143,84.64347826086957,1015.7217391304348,0.020289855072463767,1,1,1,0,0.0,0.0,0.0,0.0,41.857142857142854,5.0,116808.0
A-f25509,Company_92,EdTech,US,2024-03-22,other,Enterprise,32,0,0,0.0,0.0,5,1.0,0.0,200,40.0,16122,193464,3224.4,38692.8,0.2,0.0,0.8,23,229,73603,15,17,0.13043478260869565,9.956521739130435,3200.1304347826085,0.6521739130434783,6.0,0.0,42.666666666666664,116.0,4.666666666666667,3.0,0.0,1.0,0.0,0.0,Low Breadth,Low Intensity,High Support,Medium Revenue,0,45.8,4.6,14720.6,3200.1304347826085,3.4,0.06550218340611354,3.0,1.2,0.0,42.666666666666664,116.0,1,0,3224.4,38692.8,80.61,967.32,0.025,1,1,1,0,0.0,0.0,0.0,0.3333333333333333,46.199999999999996,6.0,32244.0
A-3a7284,Company_93,FinTech,US,2024-11-17,organic,Enterprise,31,0,0,0.0,0.0,12,1.0,3.0,432,36.0,35519,426228,2959.9166666666665,35519.0,0.08333333333333333,0.25,0.9166666666666666,60,609,191562,30,33,0.15,10.15,3192.7,0.5,3.0,0.0,56.333333333333336,104.33333333333333,3.5,1.0,0.0,0.0,0.0,0.0,High Breadth,High Intensity,Low Support,High Revenue,0,50.75,5.0,15963.5,3192.7,2.75,0.04926108374384237,2.5,0.25,0.0,56.333333333333336,104.33333333333333,1,0,2959.9166666666665,35519.0,82.2199074074074,986.6388888888889,0.027777777777777776,1,1,1,0,0.0,0.0,0.0,0.0,51.0,3.0,71038.0
A-3a5ad8,Company_94,HealthTech,US,2023-12-05,organic,Enterprise,9,1,0,0.0,1.0,13,4.0,0.0,328,25.23076923076923,28701,344412,2207.769230769231,26493.23076923077,0.3076923076923077,0.0,0.8461538461538461,52,506,127878,23,27,0.1346153846153846,9.73076923076923,2459.1923076923076,0.4423076923076923,4.0,0.0,44.75,53.5,4.5,0.0,0.0,0.0,0.0,0.0,Medium Breadth,Medium Intensity,Medium Support,High Revenue,0,38.92307692307692,4.0,9836.76923076923,2459.1923076923076,2.076923076923077,0.045454545454545456,1.7692307692307692,0.3076923076923077,0.0,44.75,53.5,1,0,2207.769230769231,26493.23076923077,87.5030487804878,1050.0365853658536,0.039634146341463415,1,1,0,0,,,,,39.23076923076923,4.0,57402.0
A-65a46c,Company_95,HealthTech,US,2023-11-04,event,Pro,1,0,0,0.0,0.0,8,1.0,1.0,248,31.0,22675,272100,2834.375,34012.5,0.125,0.125,0.875,38,370,115219,21,24,0.18421052631578946,9.736842105263158,3032.0789473684213,0.5526315789473685,8.0,0.0,45.125,91.125,4.0,0.0,0.0,0.0,0.0,0.0,Low Breadth,Low Intensity,High Support,Medium Revenue,0,46.25,4.75,14402.375,3032.0789473684213,3.0,0.05675675675675676,2.625,1.0,0.0,45.125,91.125,1,0,2834.375,34012.5,91.43145161290323,1097.1774193548388,0.03225806451612903,1,1,0,0,,,,,46.625,8.0,45350.0
A-8b25f2,Company_96,Cybersecurity,US,2024-02-17,ads,Pro,6,0,1,1.0,0.0,13,2.0,2.0,208,16.0,14048,168576,1080.6153846153845,12967.384615384615,0.15384615384615385,0.15384615384615385,1.0,54,565,159394,20,29,0.1111111111111111,10.462962962962964,2951.740740740741,0.37037037037037035,2.0,0.0,35.5,50.5,4.0,0.0,0.0,0.0,0.0,0.0,Medium Breadth,Medium Intensity,Low Support,Medium Revenue,1,43.46153846153846,4.153846153846154,12261.076923076924,2951.740740740741,2.230769230769231,0.035398230088495575,1.5384615384615385,0.15384615384615385,0.0,35.5,50.5,1,0,1080.6153846153845,12967.384615384615,67.53846153846153,810.4615384615385,0.0625,1,1,0,0,,,,,44.15384615384615,2.0,28096.0
A-fabe19,Company_97,DevTools,UK,2024-11-11,ads,Enterprise,1,0,0,0.0,0.0,7,2.0,2.0,137,19.571428571428573,20497,245964,2928.1428571428573,35137.71428571428,0.2857142857142857,0.2857142857142857,0.42857142857142855,33,337,112966,16,20,0.030303030303030304,10.212121212121213,3423.212121212121,0.48484848484848486,3.0,0.0,40.666666666666664,38.333333333333336,4.0,0.0,0.0,0.0,0.0,0.0,Low Breadth,Low Intensity,Low Support,Medium Revenue,0,48.142857142857146,4.714285714285714,16138.0,3423.212121212121,2.857142857142857,0.04747774480712166,2.2857142857142856,0.42857142857142855,0.0,40.666666666666664,38.333333333333336,1,0,2928.1428571428573,35137.71428571428,149.61313868613138,1795.3576642335765,0.051094890510948905,1,0,0,0,,,,,48.714285714285715,3.0,40994.0
A-adc1f3,Company_98,Cybersecurity,US,2024-08-05,organic,Pro,2,0,0,0.0,0.0,9,1.0,1.0,158,17.555555555555557,26608,319296,2956.4444444444443,35477.333333333336,0.1111111111111111,0.1111111111111111,0.7777777777777778,36,334,120133,26,24,0.1388888888888889,9.277777777777779,3337.027777777778,0.7222222222222222,3.0,0.0,47.333333333333336,65.0,3.5,0.0,0.0,0.0,0.0,0.0,Low Breadth,Low Intensity,Low Support,High Revenue,0,37.111111111111114,4.0,13348.111111111111,3337.027777777778,2.6666666666666665,0.07784431137724551,2.888888888888889,0.3333333333333333,0.0,47.333333333333336,65.0,1,0,2956.4444444444443,35477.333333333336,168.40506329113924,2020.860759493671,0.056962025316455694,1,1,0,0,,,,,36.88888888888889,3.0,53216.0
A-503d5a,Company_99,FinTech,US,2023-10-21,other,Enterprise,4,0,1,1.0,0.0,12,3.0,0.0,247,20.583333333333332,17884,214608,1490.3333333333333,17884.0,0.25,0.0,0.8333333333333334,59,605,211565,32,34,0.1016949152542373,10.254237288135593,3585.8474576271187,0.5423728813559322,9.0,0.0,36.55555555555556,81.77777777777777,4.0,0.0,0.0,0.0,0.0,0.0,High Breadth,High Intensity,High Support,Medium Revenue,1,50.416666666666664,4.916666666666667,17630.416666666668,3585.8474576271187,2.8333333333333335,0.05289256198347107,2.6666666666666665,0.75,0.0,36.55555555555556,81.77777777777777,1,0,1490.3333333333333,17884.0,72.40485829959515,868.8582995951417,0.048582995951417005,1,1,0,0,,,,,50.583333333333336,9.0,35768.0
A-fd7ad3,Company_100,Cybersecurity,US,2024-11-01,event,Enterprise,1,0,0,0.0,0.0,10,3.0,2.0,115,11.5,3831,45972,383.1,4597.2,0.3,0.2,0.9,56,567,171957,42,31,0.16071428571428573,10.125,3070.660714285714,0.75,8.0,1.0,48.75,98.125,4.166666666666667,4.0,70.03,1.0,2.0,0.0,Medium Breadth,Medium Intensity,High Support,Low Revenue,0,56.7,5.6,17195.7,3070.660714285714,3.1,0.07407407407407407,4.2,0.8,0.125,48.75,98.125,1,1,383.1,4597.2,33.31304347826087,399.75652173913045,0.08695652173913043,1,1,1,1,17.5075,0.5,0.0,0.25,55.6,9.0,7662.0
A-186a44,Company_101,HealthTech,US,2023-08-07,ads,Enterprise,20,0,0,0.0,0.0,14,5.0,1.0,311,22.214285714285715,20989,251868,1499.2142857142858,17990.571428571428,0.35714285714285715,0.07142857142857142,0.7142857142857143,61,614,205539,25,30,0.11475409836065574,10.065573770491802,3369.4918032786886,0.4098360655737705,7.0,0.0,38.285714285714285,110.42857142857143,3.5,0.0,0.0,0.0,0.0,0.0,Medium Breadth,High Intensity,High Support,Medium Revenue,0,43.857142857142854,4.357142857142857,14681.357142857143,3369.4918032786886,2.142857142857143,0.04071661237785016,1.7857142857142858,0.5,0.0,38.285714285714285,110.42857142857143,1,0,1499.2142857142858,17990.571428571428,67.48874598070739,809.8649517684887,0.04501607717041801,1,1,0,0,,,,,44.214285714285715,7.0,41978.0
A-e888d1,Company_102,Cybersecurity,US,2023-03-28,other,Pro,14,0,0,0.0,0.0,11,3.0,2.0,250,22.727272727272727,13646,163752,1240.5454545454545,14886.545454545454,0.2727272727272727,0.18181818181818182,0.7272727272727273,52,552,158087,36,31,0.09615384615384616,10.615384615384615,3040.1346153846152,0.6923076923076923,5.0,1.0,43.0,104.0,4.0,3.0,6.38,0.0,0.0,0.0,Medium Breadth,Medium Intensity,Medium Support,Low Revenue,0,50.18181818181818,4.7272727272727275,14371.545454545454,3040.1346153846152,2.8181818181818183,0.06521739130434782,3.272727272727273,0.45454545454545453,0.2,43.0,104.0,1,1,1240.5454545454545,14886.545454545454,54.584,655.008,0.044,1,1,1,1,2.1266666666666665,0.0,0.0,0.0,49.72727272727273,6.0,27292.0
A-69fad4,Company_103,FinTech,UK,2023-04-06,ads,Basic,6,0,1,1.0,0.0,7,1.0,2.0,112,16.0,8721,104652,1245.857142857143,14950.285714285714,0.14285714285714285,0.2857142857142857,0.8571428571428571,39,412,124646,24,24,0.10256410256410256,10.564102564102564,3196.051282051282,0.6153846153846154,4.0,0.0,43.0,116.75,3.6666666666666665,1.0,0.0,0.0,0.0,0.0,Low Breadth,Low Intensity,Medium Support,Low Revenue,1,58.857142857142854,5.571428571428571,17806.571428571428,3196.051282051282,3.4285714285714284,0.05825242718446602,3.4285714285714284,0.5714285714285714,0.0,43.0,116.75,1,0,1245.857142857143,14950.285714285714,77.86607142857143,934.3928571428571,0.0625,1,1,1,0,0.0,0.0,0.0,0.0,58.857142857142854,4.0,17442.0
A-9289f6,Company_104,EdTech,US,2023-05-31,event,Enterprise,1,0,0,0.0,0.0,12,2.0,1.0,260,21.666666666666668,13096,157152,1091.3333333333333,13096.0,0.16666666666666666,0.08333333333333333,0.8333333333333334,68,642,200375,38,33,0.10294117647058823,9.441176470588236,2946.6911764705883,0.5588235294117647,6.0,0.0,37.5,70.0,4.333333333333333,1.0,17.93,0.0,0.0,0.0,High Breadth,High Intensity,High Support,Low Revenue,0,53.5,5.666666666666667,16697.916666666668,2946.6911764705883,2.75,0.059190031152647975,3.1666666666666665,0.5,0.0,37.5,70.0,1,0,1091.3333333333333,13096.0,50.36923076923077,604.4307692307692,0.046153846153846156,1,1,1,1,17.93,0.0,0.0,0.0,53.083333333333336,6.0,26192.0
A-f19409,Company_105,DevTools,US,2023-03-16,other,Basic,23,0,1,1.0,0.0,12,1.0,1.0,342,28.5,34136,409632,2844.6666666666665,34136.0,0.08333333333333333,0.08333333333333333,0.8333333333333334,62,659,209812,31,33,0.1935483870967742,10.629032258064516,3384.064516129032,0.5,3.0,0.0,6.333333333333333,103.33333333333333,4.0,2.0,0.0,0.0,0.0,2.0,High Breadth,High Intensity,Low Support,High Revenue,1,54.916666666666664,5.166666666666667,17484.333333333332,3384.064516129032,2.75,0.04704097116843703,2.5833333333333335,0.25,0.0,6.333333333333333,103.33333333333333,1,0,2844.6666666666665,34136.0,99.81286549707602,1197.7543859649122,0.03508771929824561,1,1,1,0,0.0,0.0,1.0,0.0,55.08333333333333,3.0,68272.0
A-22f2df,Company_106,DevTools,US,2024-12-14,ads,Basic,3,0,0,0.0,0.0,9,1.0,0.0,155,17.22222222222222,7451,89412,827.8888888888889,9934.666666666666,0.1111111111111111,0.0,0.7777777777777778,42,429,119127,17,25,0.11904761904761904,10.214285714285714,2836.3571428571427,0.40476190476190477,5.0,0.0,44.8,71.6,5.0,0.0,0.0,0.0,0.0,0.0,Low Breadth,Medium Intensity,Medium Support,Low Revenue,0,47.666666666666664,4.666666666666667,13236.333333333334,2836.3571428571427,2.7777777777777777,0.039627039627039624,1.8888888888888888,0.5555555555555556,0.0,44.8,71.6,1,0,827.8888888888889,9934.666666666666,48.07096774193548,576.8516129032258,0.05806451612903226,1,1,0,0,,,,,48.55555555555556,5.0,14902.0
A-039727,Company_107,EdTech,AU,2024-11-02,organic,Pro,25,0,0,0.0,0.0,15,2.0,1.0,419,27.933333333333334,36420,437040,2428.0,29136.0,0.13333333333333333,0.06666666666666667,0.8,74,768,249545,32,33,0.04054054054054054,10.378378378378379,3372.2297297297296,0.43243243243243246,0.0,0.0,0.0,0.0,0.0,1.0,46.49,0.0,0.0,0.0,High Breadth,High Intensity,Low Support,High Revenue,0,51.2,4.933333333333334,16636.333333333332,3372.2297297297296,2.2,0.041666666666666664,2.1333333333333333,0.0,,,,0,0,2428.0,29136.0,86.92124105011933,1043.054892601432,0.03579952267303103,1,1,1,1,46.49,0.0,0.0,0.0,51.26666666666667,0.0,72840.0
A-2e3bad,Company_108,FinTech,CA,2023-08-13,other,Pro,61,0,0,0.0,0.0,10,2.0,2.0,610,61.0,45872,550464,4587.2,55046.4,0.2,0.2,0.8,45,435,123738,26,25,0.13333333333333333,9.666666666666666,2749.733333333333,0.5777777777777777,5.0,0.0,31.4,107.0,3.5,1.0,0.0,0.0,0.0,0.0,Low Breadth,Medium Intensity,Medium Support,High Revenue,0,43.5,4.5,12373.8,2749.733333333333,2.5,0.059770114942528735,2.6,0.5,0.0,31.4,107.0,1,0,4587.2,55046.4,75.2,902.4,0.01639344262295082,1,1,1,0,0.0,0.0,0.0,0.0,43.4,5.0,91744.0
A-484819,Company_109,HealthTech,US,2023-02-21,organic,Pro,18,0,0,0.0,0.0,8,0.0,2.0,156,19.5,20604,247248,2575.5,30906.0,0.0,0.25,0.875,33,336,116076,20,22,0.09090909090909091,10.181818181818182,3517.4545454545455,0.6060606060606061,5.0,0.0,33.2,139.6,4.5,2.0,0.0,0.0,1.0,0.0,Low Breadth,Low Intensity,Medium Support,Medium Revenue,0,42.0,4.125,14509.5,3517.4545454545455,2.75,0.05952380952380952,2.5,0.625,0.0,33.2,139.6,1,0,2575.5,30906.0,132.07692307692307,1584.923076923077,0.05128205128205128,0,1,1,0,0.0,0.5,0.0,0.0,42.25,5.0,41208.0
A-425e76,Company_110,DevTools,UK,2023-05-17,other,Enterprise,8,0,1,1.0,0.0,11,0.0,1.0,269,24.454545454545453,17111,205332,1555.5454545454545,18666.545454545456,0.0,0.09090909090909091,0.9090909090909091,48,438,136419,24,29,0.10416666666666667,9.125,2842.0625,0.5,5.0,1.0,48.2,119.2,3.3333333333333335,4.0,0.0,1.0,0.0,0.0,Medium Breadth,Medium Intensity,Medium Support,Medium Revenue,1,39.81818181818182,4.363636363636363,12401.727272727272,2842.0625,2.6363636363636362,0.0547945205479452,2.1818181818181817,0.45454545454545453,0.2,48.2,119.2,1,1,1555.5454545454545,18666.545454545456,63.60966542750929,763.3159851301115,0.040892193308550186,0,1,1,0,0.0,0.0,0.0,0.25,40.27272727272727,6.0,34222.0
A-e83938,Company_111,DevTools,UK,2023-11-21,other,Pro,2,1,1,1.0,1.0,8,1.0,0.0,130,16.25,7503,90036,937.875,11254.5,0.125,0.0,0.75,31,266,87249,18,22,0.06451612903225806,8.580645161290322,2814.483870967742,0.5806451612903226,4.0,0.0,31.0,72.5,3.0,3.0,13.5,0.0,0.0,0.0,Low Breadth,Low Intensity,Medium Support,Low Revenue,1,33.25,3.875,10906.125,2814.483870967742,2.75,0.06766917293233082,2.25,0.5,0.0,31.0,72.5,1,0,937.875,11254.5,57.715384615384615,692.5846153846154,0.06153846153846154,1,1,1,1,4.5,0.0,0.0,0.0,33.75,4.0,15006.0
A-ad296b,Company_112,DevTools,AU,2024-07-15,event,Pro,38,0,0,0.0,0.0,6,1.0,1.0,228,38.0,18430,221160,3071.6666666666665,36860.0,0.16666666666666666,0.16666666666666666,1.0,31,294,103805,12,24,0.06451612903225806,9.483870967741936,3348.548387096774,0.3870967741935484,3.0,1.0,28.333333333333332,83.33333333333333,3.6666666666666665,0.0,0.0,0.0,0.0,0.0,Low Breadth,Low Intensity,Low Support,Medium Revenue,0,49.0,5.166666666666667,17300.833333333332,3348.548387096774,4.0,0.04081632653061224,2.0,0.5,0.3333333333333333,28.333333333333332,83.33333333333333,1,1,3071.6666666666665,36860.0,80.83333333333333,970.0,0.02631578947368421,1,1,0,0,,,,,51.0,4.0,36860.0
A-e51ec7,Company_113,FinTech,CA,2023-09-23,partner,Enterprise,2,0,0,0.0,0.0,8,3.0,1.0,134,16.75,24076,288912,3009.5,36114.0,0.375,0.125,0.75,40,417,126745,18,26,0.1,10.425,3168.625,0.45,3.0,0.0,37.0,93.33333333333333,5.0,3.0,0.0,0.0,0.0,0.0,Low Breadth,Low Intensity,Low Support,Medium Revenue,0,52.125,5.0,15843.125,3168.625,3.25,0.04316546762589928,2.25,0.375,0.0,37.0,93.33333333333333,1,0,3009.5,36114.0,179.67164179104478,2156.0597014925374,0.05970149253731343,1,1,1,0,0.0,0.0,0.0,0.0,53.125,3.0,48152.0
A-0aaf6e,Company_114,FinTech,US,2024-05-11,organic,Enterprise,3,0,0,0.0,0.0,9,2.0,1.0,215,23.88888888888889,24084,289008,2676.0,32112.0,0.2222222222222222,0.1111111111111111,0.6666666666666666,57,599,172442,39,25,0.10526315789473684,10.508771929824562,3025.2982456140353,0.6842105263157895,5.0,0.0,45.0,75.4,4.0,0.0,0.0,0.0,0.0,0.0,Low Breadth,High Intensity,Medium Support,Medium Revenue,0,66.55555555555556,6.333333333333333,19160.222222222223,3025.2982456140353,2.7777777777777777,0.0651085141903172,4.333333333333333,0.5555555555555556,0.0,45.0,75.4,1,0,2676.0,32112.0,112.01860465116279,1344.2232558139535,0.04186046511627907,1,1,0,0,,,,,65.0,5.0,48168.0
A-e61e98,Company_115,FinTech,US,2023-10-20,partner,Enterprise,19,0,1,1.0,0.0,9,1.0,0.0,238,26.444444444444443,13484,161808,1498.2222222222222,17978.666666666668,0.1111111111111111,0.0,0.7777777777777778,56,527,131994,25,32,0.125,9.410714285714286,2357.035714285714,0.44642857142857145,6.0,1.0,30.333333333333332,88.5,4.6,1.0,0.0,0.0,0.0,1.0,High Breadth,Medium Intensity,High Support,Low Revenue,1,58.55555555555556,6.222222222222222,14666.0,2357.035714285714,3.5555555555555554,0.04743833017077799,2.7777777777777777,0.6666666666666666,0.16666666666666666,30.333333333333332,88.5,1,1,1498.2222222222222,17978.666666666668,56.65546218487395,679.8655462184873,0.037815126050420166,1,1,1,0,0.0,0.0,1.0,0.0,59.333333333333336,7.0,26968.0
A-92a333,Company_116,FinTech,US,2023-03-24,event,Enterprise,9,0,0,0.0,0.0,6,0.0,0.0,141,23.5,10659,127908,1776.5,21318.0,0.0,0.0,1.0,36,364,103645,30,22,0.05555555555555555,10.11111111111111,2879.027777777778,0.8333333333333334,4.0,1.0,23.25,58.25,0.0,0.0,0.0,0.0,0.0,0.0,Low Breadth,Low Intensity,Medium Support,Low Revenue,0,60.666666666666664,6.0,17274.166666666668,2879.027777777778,3.6666666666666665,0.08241758241758242,5.0,0.6666666666666666,0.25,23.25,58.25,1,1,1776.5,21318.0,75.59574468085107,907.1489361702128,0.0425531914893617,0,1,0,0,,,,,59.33333333333333,5.0,21318.0
A-95b24a,Company_117,FinTech,US,2023-06-06,event,Pro,38,0,1,1.0,0.0,11,2.0,0.0,432,39.27272727272727,25034,300408,2275.818181818182,27309.81818181818,0.18181818181818182,0.0,0.6363636363636364,62,611,188856,34,32,0.12903225806451613,9.85483870967742,3046.064516129032,0.5483870967741935,5.0,0.0,21.2,90.4,4.25,0.0,0.0,0.0,0.0,0.0,High Breadth,High Intensity,Medium Support,High Revenue,1,55.54545454545455,5.636363636363637,17168.727272727272,3046.064516129032,2.909090909090909,0.05564648117839607,3.090909090909091,0.45454545454545453,0.0,21.2,90.4,1,0,2275.818181818182,27309.81818181818,57.949074074074076,695.3888888888889,0.02546296296296296,1,1,0,0,,,,,55.36363636363636,5.0,50068.0
A-42e5e1,Company_118,DevTools,US,2024-07-09,ads,Pro,1,0,1,1.0,0.0,7,2.0,1.0,129,18.428571428571427,8916,106992,1273.7142857142858,15284.57142857143,0.2857142857142857,0.14285714285714285,0.8571428571428571,41,411,116704,41,24,0.04878048780487805,10.024390243902438,2846.439024390244,1.0,3.0,0.0,29.0,81.33333333333333,4.0,1.0,0.0,1.0,0.0,0.0,Low Breadth,Low Intensity,Low Support,Low Revenue,1,58.714285714285715,5.857142857142857,16672.0,2846.439024390244,3.4285714285714284,0.09975669099756691,5.857142857142857,0.42857142857142855,0.0,29.0,81.33333333333333,1,0,1273.7142857142858,15284.57142857143,69.11627906976744,829.3953488372093,0.05426356589147287,1,1,1,0,0.0,0.0,0.0,1.0,56.28571428571429,3.0,17832.0
A-7d514c,Company_119,HealthTech,DE,2024-02-03,organic,Enterprise,17,0,0,0.0,0.0,9,2.0,1.0,200,22.22222222222222,24274,291288,2697.1111111111113,32365.333333333332,0.2222222222222222,0.1111111111111111,0.8888888888888888,48,502,146707,30,30,0.14583333333333334,10.458333333333334,3056.3958333333335,0.625,3.0,0.0,33.333333333333336,49.666666666666664,5.0,0.0,0.0,0.0,0.0,0.0,Medium Breadth,Medium Intensity,Low Support,Medium Revenue,0,55.77777777777778,5.333333333333333,16300.777777777777,3056.3958333333335,3.3333333333333335,0.05976095617529881,3.3333333333333335,0.3333333333333333,0.0,33.333333333333336,49.666666666666664,1,0,2697.1111111111113,32365.333333333332,121.37,1456.44,0.045,1,1,0,0,,,,,55.77777777777778,3.0,48548.0
A-65aeb5,Company_120,DevTools,US,2024-01-25,partner,Pro,9,0,0,0.0,0.0,12,1.0,3.0,237,19.75,34392,412704,2866.0,34392.0,0.08333333333333333,0.25,0.75,55,533,148034,40,30,0.05454545454545454,9.690909090909091,2691.5272727272727,0.7272727272727273,2.0,0.0,42.5,159.5,5.0,2.0,0.0,1.0,1.0,0.0,Medium Breadth,Medium Intensity,Low Support,High Revenue,0,44.416666666666664,4.583333333333333,12336.166666666666,2691.5272727272727,2.5,0.075046904315197,3.3333333333333335,0.16666666666666666,0.0,42.5,159.5,1,0,2866.0,34392.0,145.1139240506329,1741.367088607595,0.05063291139240506,1,1,1,0,0.0,0.5,0.0,0.5,43.58333333333333,2.0,68784.0
A-e2cd1b,Company_121,DevTools,US,2024-02-04,other,Enterprise,15,0,0,0.0,0.0,9,2.0,0.0,302,33.55555555555556,12548,150576,1394.2222222222222,16730.666666666668,0.2222222222222222,0.0,1.0,49,465,138043,18,29,0.14285714285714285,9.489795918367347,2817.204081632653,0.3673469387755102,5.0,0.0,37.8,76.0,4.0,0.0,0.0,0.0,0.0,0.0,Medium Breadth,Medium Intensity,Medium Support,Low Revenue,0,51.666666666666664,5.444444444444445,15338.111111111111,2817.204081632653,3.2222222222222223,0.03870967741935484,2.0,0.5555555555555556,0.0,37.8,76.0,1,0,1394.2222222222222,16730.666666666668,41.549668874172184,498.5960264900662,0.029801324503311258,1,1,0,0,,,,,52.888888888888886,5.0,25096.0
A-180abf,Company_122,DevTools,US,2023-08-14,event,Pro,64,0,1,1.0,0.0,9,2.0,2.0,576,64.0,37312,447744,4145.777777777777,49749.333333333336,0.2222222222222222,0.2222222222222222,0.7777777777777778,48,499,136250,28,29,0.10416666666666667,10.395833333333334,2838.5416666666665,0.5833333333333334,3.0,0.0,36.333333333333336,62.333333333333336,3.0,5.0,0.0,0.0,0.0,1.0,Medium Breadth,Medium Intensity,Low Support,High Revenue,1,55.44444444444444,5.333333333333333,15138.888888888889,2838.5416666666665,3.2222222222222223,0.056112224448897796,3.111111111111111,0.3333333333333333,0.0,36.333333333333336,62.333333333333336,1,0,4145.777777777777,49749.333333333336,64.77777777777777,777.3333333333334,0.015625,1,1,1,0,0.0,0.0,0.2,0.0,55.55555555555555,3.0,74624.0
A-f17767,Company_123,DevTools,US,2023-01-30,event,Enterprise,1,1,1,1.0,1.0,14,0.0,2.0,191,13.642857142857142,16139,193668,1152.7857142857142,13833.42857142857,0.0,0.14285714285714285,0.9285714285714286,69,713,208977,38,35,0.057971014492753624,10.333333333333334,3028.6521739130435,0.5507246376811594,3.0,1.0,36.333333333333336,115.0,4.0,1.0,0.0,0.0,1.0,0.0,High Breadth,High Intensity,Low Support,Medium Revenue,1,50.92857142857143,4.928571428571429,14926.92857142857,3028.6521739130435,2.5,0.05329593267882188,2.7142857142857144,0.21428571428571427,0.3333333333333333,36.333333333333336,115.0,1,1,1152.7857142857142,13833.42857142857,84.49738219895288,1013.9685863874346,0.07329842931937172,0,1,1,0,0.0,1.0,0.0,0.0,50.714285714285715,4.0,32278.0
A-5a184f,Company_124,DevTools,DE,2023-06-19,other,Enterprise,1,0,1,1.0,0.0,10,1.0,1.0,266,26.6,20683,248196,2068.3,24819.6,0.1,0.1,1.0,57,587,175629,29,30,0.03508771929824561,10.298245614035087,3081.2105263157896,0.5087719298245614,3.0,0.0,15.333333333333334,42.333333333333336,4.333333333333333,3.0,0.0,0.0,0.0,1.0,Medium Breadth,High Intensity,Low Support,Medium Revenue,1,58.7,5.7,17562.9,3081.2105263157896,3.0,0.049403747870528106,2.9,0.3,0.0,15.333333333333334,42.333333333333336,1,0,2068.3,24819.6,77.75563909774436,933.0676691729324,0.03759398496240601,1,1,1,0,0.0,0.0,0.3333333333333333,0.0,58.800000000000004,3.0,41366.0
A-7df7a7,Company_125,DevTools,US,2023-01-28,organic,Basic,7,0,1,1.0,0.0,15,2.0,1.0,289,19.266666666666666,29155,349860,1943.6666666666667,23324.0,0.13333333333333333,0.06666666666666667,0.8,91,922,256811,47,36,0.10989010989010989,10.131868131868131,2822.098901098901,0.5164835164835165,3.0,1.0,28.0,93.0,4.0,1.0,0.0,0.0,0.0,0.0,High Breadth,High Intensity,Low Support,High Revenue,1,61.46666666666667,6.066666666666666,17120.733333333334,2822.098901098901,2.4,0.0509761388286334,3.1333333333333333,0.2,0.3333333333333333,28.0,93.0,1,1,1943.6666666666667,23324.0,100.88235294117646,1210.5882352941176,0.05190311418685121,1,1,1,0,0.0,0.0,0.0,0.0,60.733333333333334,4.0,58310.0
A-1ac5e0,Company_126,DevTools,US,2024-10-20,event,Basic,33,0,1,1.0,0.0,10,3.0,0.0,330,33.0,18249,218988,1824.9,21898.8,0.3,0.0,0.5,56,558,167904,31,31,0.125,9.964285714285714,2998.285714285714,0.5535714285714286,7.0,0.0,40.42857142857143,76.0,3.8,0.0,0.0,0.0,0.0,0.0,Medium Breadth,Medium Intensity,High Support,Medium Revenue,1,55.8,5.6,16790.4,2998.285714285714,3.1,0.05555555555555555,3.1,0.7,0.0,40.42857142857143,76.0,1,0,1824.9,21898.8,55.3,663.6,0.030303030303030304,1,1,0,0,,,,,55.8,7.0,36498.0
A-52dd88,Company_127,Cybersecurity,US,2023-02-21,ads,Pro,23,0,0,0.0,0.0,11,1.0,0.0,271,24.636363636363637,16592,199104,1508.3636363636363,18100.363636363636,0.09090909090909091,0.0,0.6363636363636364,50,516,180823,33,28,0.08,10.32,3616.46,0.66,1.0,0.0,72.0,111.0,0.0,0.0,0.0,0.0,0.0,0.0,Medium Breadth,Medium Intensity,Low Support,Medium Revenue,0,46.90909090909091,4.545454545454546,16438.454545454544,3616.46,2.5454545454545454,0.06395348837209303,3.0,0.09090909090909091,0.0,72.0,111.0,1,0,1508.3636363636363,18100.363636363636,61.22509225092251,734.7011070110701,0.04059040590405904,1,1,0,0,,,,,46.45454545454545,1.0,33184.0
A-bece89,Company_128,Cybersecurity,IN,2023-12-01,event,Pro,26,0,0,0.0,0.0,6,0.0,0.0,170,28.333333333333332,19250,231000,3208.3333333333335,38500.0,0.0,0.0,0.6666666666666666,19,176,48112,13,16,0.10526315789473684,9.263157894736842,2532.2105263157896,0.6842105263157895,4.0,1.0,32.5,103.75,4.0,2.0,109.75999999999999,0.0,0.0,0.0,Low Breadth,Low Intensity,Medium Support,Medium Revenue,0,29.333333333333332,3.1666666666666665,8018.666666666667,2532.2105263157896,2.6666666666666665,0.07386363636363637,2.1666666666666665,0.6666666666666666,0.25,32.5,103.75,1,1,3208.3333333333335,38500.0,113.23529411764706,1358.8235294117646,0.03529411764705882,0,1,1,1,54.879999999999995,0.0,0.0,0.0,29.833333333333332,5.0,38500.0
A-029f69,Company_129,Cybersecurity,CA,2024-03-07,event,Basic,3,0,0,0.0,0.0,16,2.0,3.0,220,13.75,14638,175656,914.875,10978.5,0.125,0.1875,0.625,84,789,241275,42,37,0.10714285714285714,9.392857142857142,2872.3214285714284,0.5,2.0,0.0,42.0,108.0,3.0,3.0,32.73,0.0,0.0,0.0,High Breadth,High Intensity,Low Support,Medium Revenue,0,49.3125,5.25,15079.6875,2872.3214285714284,2.3125,0.053231939163498096,2.625,0.125,0.0,42.0,108.0,1,0,914.875,10978.5,66.53636363636363,798.4363636363636,0.07272727272727272,1,1,1,1,10.909999999999998,0.0,0.0,0.0,49.0,2.0,29276.0
A-5c046d,Company_130,EdTech,FR,2024-07-06,partner,Basic,93,0,0,0.0,0.0,8,0.0,0.0,744,93.0,83886,1006632,10485.75,125829.0,0.0,0.0,0.75,46,475,127926,23,27,0.10869565217391304,10.326086956521738,2781.0,0.5,1.0,0.0,13.0,128.0,3.0,0.0,0.0,0.0,0.0,0.0,Medium Breadth,Medium Intensity,Low Support,High Revenue,0,59.375,5.75,15990.75,2781.0,3.375,0.04842105263157895,2.875,0.125,0.0,13.0,128.0,1,0,10485.75,125829.0,112.75,1353.0,0.010752688172043012,0,1,0,0,,,,,59.875,1.0,167772.0
A-fb186e,Company_131,EdTech,IN,2024-10-27,organic,Basic,29,0,0,0.0,0.0,3,2.0,0.0,91,30.333333333333332,5771,69252,1923.6666666666667,23084.0,0.6666666666666666,0.0,0.6666666666666666,20,207,72170,7,15,0.15,10.35,3608.5,0.35,6.0,0.0,26.166666666666668,81.0,3.6666666666666665,0.0,0.0,0.0,0.0,0.0,Low Breadth,Low Intensity,High Support,Low Revenue,0,69.0,6.666666666666667,24056.666666666668,3608.5,5.0,0.033816425120772944,2.3333333333333335,2.0,0.0,26.166666666666668,81.0,1,0,1923.6666666666667,23084.0,63.417582417582416,761.010989010989,0.03296703296703297,1,1,0,0,,,,,71.66666666666667,6.0,11542.0
A-ae052e,Company_132,FinTech,CA,2023-09-11,other,Basic,39,0,0,0.0,0.0,6,2.0,3.0,235,39.166666666666664,7693,92316,1282.1666666666667,15386.0,0.3333333333333333,0.5,1.0,29,300,88383,12,24,0.20689655172413793,10.344827586206897,3047.689655172414,0.41379310344827586,4.0,0.0,31.25,60.5,4.0,4.0,0.0,0.0,0.0,0.0,Low Breadth,Low Intensity,Medium Support,Low Revenue,0,50.0,4.833333333333333,14730.5,3047.689655172414,4.0,0.04,2.0,0.6666666666666666,0.0,31.25,60.5,1,0,1282.1666666666667,15386.0,32.736170212765956,392.83404255319147,0.02553191489361702,1,1,1,0,0.0,0.0,0.0,0.0,52.0,4.0,15386.0
A-9f9299,Company_133,FinTech,US,2023-09-02,organic,Enterprise,28,1,0,0.0,1.0,15,0.0,3.0,457,30.466666666666665,42403,508836,2826.866666666667,33922.4,0.0,0.2,0.6,85,830,258465,54,37,0.11764705882352941,9.764705882352942,3040.764705882353,0.6352941176470588,5.0,0.0,36.2,116.2,5.0,2.0,0.0,0.0,0.0,0.0,High Breadth,High Intensity,Medium Support,High Revenue,0,55.333333333333336,5.666666666666667,17231.0,3040.764705882353,2.466666666666667,0.06506024096385542,3.6,0.3333333333333333,0.0,36.2,116.2,1,0,2826.866666666667,33922.4,92.7855579868709,1113.4266958424507,0.03282275711159737,0,1,1,0,0.0,0.0,0.0,0.0,54.2,5.0,84806.0
A-96e141,Company_134,DevTools,UK,2023-08-12,partner,Basic,14,0,0,0.0,0.0,7,1.0,1.0,172,24.571428571428573,15468,185616,2209.714285714286,26516.571428571428,0.14285714285714285,0.14285714285714285,1.0,36,346,81587,19,26,0.05555555555555555,9.61111111111111,2266.3055555555557,0.5277777777777778,5.0,0.0,32.8,68.4,4.333333333333333,2.0,43.53,0.0,0.0,0.0,Low Breadth,Low Intensity,Medium Support,Medium Revenue,0,49.42857142857143,5.142857142857143,11655.285714285714,2266.3055555555557,3.7142857142857144,0.05491329479768786,2.7142857142857144,0.7142857142857143,0.0,32.8,68.4,1,0,2209.714285714286,26516.571428571428,89.93023255813954,1079.1627906976744,0.040697674418604654,1,1,1,1,21.765,0.0,0.0,0.0,50.42857142857143,5.0,30936.0
A-117171,Company_135,HealthTech,FR,2024-09-12,organic,Basic,45,0,1,1.0,0.0,5,2.0,1.0,225,45.0,12015,144180,2403.0,28836.0,0.4,0.2,1.0,21,208,59864,11,15,0.047619047619047616,9.904761904761905,2850.6666666666665,0.5238095238095238,6.0,1.0,32.5,68.33333333333333,3.6666666666666665,3.0,102.86,0.0,0.0,0.0,Low Breadth,Low Intensity,High Support,Low Revenue,1,41.6,4.2,11972.8,2850.6666666666665,3.0,0.052884615384615384,2.2,1.2,0.16666666666666666,32.5,68.33333333333333,1,1,2403.0,28836.0,53.4,640.8,0.022222222222222223,1,1,1,1,34.28666666666667,0.0,0.0,0.0,42.4,7.0,24030.0
A-313be3,Company_136,EdTech,US,2023-11-15,partner,Enterprise,47,1,0,0.0,1.0,11,6.0,0.0,526,47.81818181818182,19006,228072,1727.8181818181818,20733.81818181818,0.5454545454545454,0.0,0.7272727272727273,57,560,164545,40,33,0.05263157894736842,9.824561403508772,2886.754385964912,0.7017543859649122,4.0,1.0,22.5,80.25,5.0,2.0,43.03,0.0,1.0,0.0,High Breadth,Medium Intensity,Medium Support,Medium Revenue,0,50.90909090909091,5.181818181818182,14958.636363636364,2886.754385964912,3.0,0.07142857142857142,3.6363636363636362,0.36363636363636365,0.25,22.5,80.25,1,1,1727.8181818181818,20733.81818181818,36.133079847908746,433.59695817490496,0.02091254752851711,1,1,1,1,21.515,0.5,0.0,0.0,50.27272727272727,5.0,38012.0
A-671f31,Company_137,DevTools,US,2024-11-24,ads,Basic,59,0,0,0.0,0.0,6,1.0,0.0,377,62.833333333333336,30385,364620,5064.166666666667,60770.0,0.16666666666666666,0.0,0.8333333333333334,17,167,43449,16,13,0.0,9.823529411764707,2555.823529411765,0.9411764705882353,7.0,0.0,33.0,78.0,4.2,0.0,0.0,0.0,0.0,0.0,Low Breadth,Low Intensity,High Support,High Revenue,0,27.833333333333332,2.8333333333333335,7241.5,2555.823529411765,2.1666666666666665,0.09580838323353294,2.6666666666666665,1.1666666666666667,0.0,33.0,78.0,1,0,5064.166666666667,60770.0,80.59681697612731,967.1618037135279,0.015915119363395226,1,1,0,0,,,,,27.333333333333332,7.0,60770.0
A-bbc346,Company_138,FinTech,US,2024-08-29,partner,Enterprise,19,0,0,0.0,0.0,13,3.0,2.0,335,25.76923076923077,33122,397464,2547.846153846154,30574.153846153848,0.23076923076923078,0.15384615384615385,0.8461538461538461,62,650,179376,37,34,0.0967741935483871,10.483870967741936,2893.1612903225805,0.5967741935483871,3.0,0.0,45.333333333333336,102.66666666666667,4.5,2.0,15.46,0.0,1.0,0.0,High Breadth,High Intensity,Low Support,High Revenue,0,50.0,4.769230769230769,13798.153846153846,2893.1612903225805,2.6153846153846154,0.05692307692307692,2.8461538461538463,0.23076923076923078,0.0,45.333333333333336,102.66666666666667,1,0,2547.846153846154,30574.153846153848,98.87164179104478,1186.4597014925373,0.03880597014925373,1,1,1,1,7.73,0.5,0.0,0.0,49.76923076923077,3.0,66244.0
A-c16101,Company_139,EdTech,IN,2024-09-06,other,Basic,7,0,0,0.0,0.0,10,0.0,0.0,158,15.8,12422,149064,1242.2,14906.4,0.0,0.0,0.9,55,561,185984,29,31,0.16363636363636364,10.2,3381.5272727272727,0.5272727272727272,4.0,1.0,28.0,82.0,5.0,2.0,0.0,1.0,0.0,1.0,Medium Breadth,Medium Intensity,Medium Support,Low Revenue,0,56.1,5.5,18598.4,3381.5272727272727,3.1,0.05169340463458111,2.9,0.4,0.25,28.0,82.0,1,1,1242.2,14906.4,78.62025316455696,943.4430379746835,0.06329113924050633,0,1,1,0,0.0,0.0,0.5,0.5,56.300000000000004,5.0,24844.0
A-50f3f7,Company_140,HealthTech,US,2023-12-22,partner,Basic,31,0,1,1.0,0.0,15,2.0,0.0,585,39.0,44077,528924,2938.4666666666667,35261.6,0.13333333333333333,0.0,0.8666666666666667,72,685,206893,45,30,0.09722222222222222,9.51388888888889,2873.5138888888887,0.625,6.0,1.0,37.833333333333336,67.83333333333333,5.0,0.0,0.0,0.0,0.0,0.0,Medium Breadth,High Intensity,High Support,High Revenue,1,45.666666666666664,4.8,13792.866666666667,2873.5138888888887,2.0,0.06569343065693431,3.0,0.4,0.16666666666666666,37.833333333333336,67.83333333333333,1,1,2938.4666666666667,35261.6,75.34529914529915,904.1435897435897,0.02564102564102564,1,1,0,0,,,,,44.666666666666664,7.0,88154.0
A-7da956,Company_141,Cybersecurity,US,2024-06-02,event,Pro,13,1,0,0.0,1.0,12,3.0,2.0,179,14.916666666666666,10963,131556,913.5833333333334,10963.0,0.25,0.16666666666666666,0.9166666666666666,51,543,150431,35,28,0.0784313725490196,10.647058823529411,2949.627450980392,0.6862745098039216,3.0,0.0,32.666666666666664,88.0,5.0,0.0,0.0,0.0,0.0,0.0,Medium Breadth,Medium Intensity,Low Support,Low Revenue,0,45.25,4.25,12535.916666666666,2949.627450980392,2.3333333333333335,0.06445672191528545,2.9166666666666665,0.25,0.0,32.666666666666664,88.0,1,0,913.5833333333334,10963.0,61.245810055865924,734.9497206703911,0.0670391061452514,1,1,0,0,,,,,44.66666666666667,3.0,21926.0
A-019782,Company_142,DevTools,FR,2023-04-19,event,Enterprise,11,0,0,0.0,0.0,9,2.0,1.0,123,13.666666666666666,8353,100236,928.1111111111111,11137.333333333334,0.2222222222222222,0.1111111111111111,0.6666666666666666,55,562,160848,30,28,0.05454545454545454,10.218181818181819,2924.509090909091,0.5454545454545454,2.0,0.0,10.0,107.0,3.0,0.0,0.0,0.0,0.0,0.0,Medium Breadth,Medium Intensity,Low Support,Low Revenue,0,62.44444444444444,6.111111111111111,17872.0,2924.509090909091,3.111111111111111,0.05338078291814947,3.3333333333333335,0.2222222222222222,0.0,10.0,107.0,1,0,928.1111111111111,11137.333333333334,67.91056910569105,814.9268292682926,0.07317073170731707,1,1,0,0,,,,,62.22222222222222,2.0,16706.0
A-df10db,Company_143,DevTools,US,2023-06-06,other,Enterprise,2,1,0,0.0,1.0,11,1.0,1.0,188,17.09090909090909,11730,140760,1066.3636363636363,12796.363636363636,0.09090909090909091,0.09090909090909091,0.8181818181818182,64,697,214976,40,31,0.03125,10.890625,3359.0,0.625,2.0,1.0,68.5,86.5,3.0,2.0,0.0,0.0,0.0,0.0,Medium Breadth,High Intensity,Low Support,Low Revenue,0,63.36363636363637,5.818181818181818,19543.272727272728,3359.0,2.8181818181818183,0.05738880918220947,3.6363636363636362,0.18181818181818182,0.5,68.5,86.5,1,1,1066.3636363636363,12796.363636363636,62.3936170212766,748.7234042553191,0.05851063829787234,1,1,1,0,0.0,0.0,0.0,0.0,62.545454545454554,3.0,23460.0
A-3932db,Company_144,HealthTech,CA,2023-10-04,other,Pro,19,1,1,1.0,1.0,9,3.0,1.0,269,29.88888888888889,14087,169044,1565.2222222222222,18782.666666666668,0.3333333333333333,0.1111111111111111,1.0,46,434,134963,28,28,0.08695652173913043,9.434782608695652,2933.978260869565,0.6086956521739131,6.0,0.0,41.0,86.5,4.333333333333333,0.0,0.0,0.0,0.0,0.0,Medium Breadth,Medium Intensity,High Support,Medium Revenue,1,48.22222222222222,5.111111111111111,14995.888888888889,2933.978260869565,3.111111111111111,0.06451612903225806,3.111111111111111,0.6666666666666666,0.0,41.0,86.5,1,0,1565.2222222222222,18782.666666666668,52.36802973977695,628.4163568773234,0.03345724907063197,1,1,0,0,,,,,48.22222222222222,6.0,28174.0
A-4f18f0,Company_145,DevTools,CA,2024-04-21,other,Pro,24,1,0,0.0,1.0,12,2.0,3.0,325,27.083333333333332,30264,363168,2522.0,30264.0,0.16666666666666666,0.25,0.75,57,544,168051,25,33,0.10526315789473684,9.543859649122806,2948.2631578947367,0.43859649122807015,5.0,0.0,39.2,61.4,4.0,2.0,0.0,0.0,1.0,0.0,High Breadth,Medium Intensity,Medium Support,High Revenue,0,45.333333333333336,4.75,14004.25,2948.2631578947367,2.75,0.04595588235294118,2.0833333333333335,0.4166666666666667,0.0,39.2,61.4,1,0,2522.0,30264.0,93.12,1117.44,0.036923076923076927,1,1,1,0,0.0,0.5,0.0,0.0,46.0,5.0,60528.0
A-4c6f11,Company_146,FinTech,CA,2023-11-27,organic,Pro,24,1,1,1.0,1.0,5,0.0,0.0,134,26.8,7586,91032,1517.2,18206.4,0.0,0.0,0.6,24,268,84855,4,20,0.041666666666666664,11.166666666666666,3535.625,0.16666666666666666,3.0,0.0,44.666666666666664,63.0,4.333333333333333,2.0,0.0,0.0,0.0,0.0,Low Breadth,Low Intensity,Low Support,Low Revenue,1,53.6,4.8,16971.0,3535.625,4.0,0.014925373134328358,0.8,0.6,0.0,44.666666666666664,63.0,1,0,1517.2,18206.4,56.61194029850746,679.3432835820895,0.03731343283582089,0,1,1,0,0.0,0.0,0.0,0.0,56.800000000000004,3.0,15172.0
A-8ae05d,Company_147,FinTech,IN,2024-04-06,other,Enterprise,86,0,0,0.0,0.0,7,2.0,1.0,602,86.0,26230,314760,3747.1428571428573,44965.71428571428,0.2857142857142857,0.14285714285714285,0.7142857142857143,20,203,77446,10,16,0.05,10.15,3872.3,0.5,1.0,0.0,47.0,48.0,4.0,1.0,0.0,0.0,0.0,0.0,Low Breadth,Low Intensity,Low Support,High Revenue,0,29.0,2.857142857142857,11063.714285714286,3872.3,2.2857142857142856,0.04926108374384237,1.4285714285714286,0.14285714285714285,0.0,47.0,48.0,1,0,3747.1428571428573,44965.71428571428,43.57142857142857,522.8571428571429,0.011627906976744186,1,1,1,0,0.0,0.0,0.0,0.0,29.857142857142858,1.0,52460.0
A-b78bf8,Company_148,DevTools,US,2024-11-15,event,Pro,33,0,0,0.0,0.0,8,1.0,0.0,280,35.0,22423,269076,2802.875,33634.5,0.125,0.0,1.0,42,421,123802,11,24,0.16666666666666666,10.023809523809524,2947.6666666666665,0.2619047619047619,5.0,0.0,24.2,88.8,4.2,1.0,0.0,0.0,0.0,0.0,Low Breadth,Medium Intensity,Medium Support,Medium Revenue,0,52.625,5.25,15475.25,2947.6666666666665,3.0,0.026128266033254157,1.375,0.625,0.0,24.2,88.8,1,0,2802.875,33634.5,80.08214285714286,960.9857142857143,0.02857142857142857,1,1,1,0,0.0,0.0,0.0,0.0,54.25,5.0,44846.0
A-eafc6e,Company_149,DevTools,US,2023-07-06,partner,Pro,27,0,1,1.0,0.0,7,2.0,0.0,252,36.0,16229,194748,2318.4285714285716,27821.14285714286,0.2857142857142857,0.0,0.8571428571428571,32,300,90218,15,23,0.09375,9.375,2819.3125,0.46875,1.0,0.0,64.0,136.0,0.0,2.0,0.0,0.0,0.0,0.0,Low Breadth,Low Intensity,Low Support,Medium Revenue,1,42.857142857142854,4.571428571428571,12888.285714285714,2819.3125,3.2857142857142856,0.05,2.142857142857143,0.14285714285714285,0.0,64.0,136.0,1,0,2318.4285714285716,27821.14285714286,64.40079365079364,772.8095238095239,0.027777777777777776,1,1,1,0,0.0,0.0,0.0,0.0,43.99999999999999,1.0,32458.0
A-37f969,Company_150,HealthTech,IN,2023-10-14,partner,Enterprise,30,0,0,0.0,0.0,8,0.0,0.0,261,32.625,22959,275508,2869.875,34438.5,0.0,0.0,0.75,32,312,107852,14,25,0.15625,9.75,3370.375,0.4375,5.0,1.0,22.2,94.0,3.6666666666666665,4.0,146.86,0.0,1.0,0.0,Low Breadth,Low Intensity,High Support,Medium Revenue,0,39.0,4.0,13481.5,3370.375,3.125,0.04487179487179487,1.75,0.625,0.2,22.2,94.0,1,1,2869.875,34438.5,87.96551724137932,1055.5862068965516,0.03065134099616858,0,1,1,1,36.715,0.25,0.0,0.0,40.375,6.0,45918.0
A-10b8f2,Company_151,HealthTech,DE,2023-01-11,organic,Basic,47,1,0,0.0,1.0,12,3.0,0.0,632,52.666666666666664,30719,368628,2559.9166666666665,30719.0,0.25,0.0,0.6666666666666666,56,560,173183,23,29,0.17857142857142858,10.0,3092.5535714285716,0.4107142857142857,3.0,0.0,46.333333333333336,67.0,4.333333333333333,1.0,0.0,0.0,1.0,0.0,Medium Breadth,Medium Intensity,Low Support,High Revenue,0,46.666666666666664,4.666666666666667,14431.916666666666,3092.5535714285716,2.4166666666666665,0.04107142857142857,1.9166666666666667,0.25,0.0,46.333333333333336,67.0,1,0,2559.9166666666665,30719.0,48.60601265822785,583.2721518987341,0.0189873417721519,1,1,1,0,0.0,1.0,0.0,0.0,47.166666666666664,3.0,61438.0
